               datetime,    accX,    accY,    accZ
2019/09/12 13:56:53.611, -0.1146,  0.1119,  0.1505
2019/09/12 13:56:53.700, -0.5892,  0.3387,  0.4277
2019/09/12 13:56:53.705,  0.1166, -0.0770,  0.0728
2019/09/12 13:56:53.711,  0.1166, -0.0770,  0.0728
2019/09/12 13:56:53.716,  0.1166, -0.0770,  0.0728
2019/09/12 13:56:53.826, -0.3026,  0.1512,  0.4727
2019/09/12 13:56:53.832, -0.6460,  0.3728,  0.5002
2019/09/12 13:56:53.842, -0.6460,  0.3728,  0.5002
2019/09/12 13:56:53.848, -0.5133,  0.2978,  0.5038
2019/09/12 13:56:53.854, -0.5133,  0.2978,  0.5038
2019/09/12 13:56:53.873, -0.0820,  0.0193,  0.2077
2019/09/12 13:56:53.880, -0.0820,  0.0193,  0.2077
2019/09/12 13:56:53.885, -0.5871,  0.3506,  0.1187
2019/09/12 13:56:53.890, -0.5871,  0.3506,  0.1187
2019/09/12 13:56:53.896, -0.5871,  0.3506,  0.1187
2019/09/12 13:56:53.901, -0.5871,  0.3506,  0.1187
2019/09/12 13:56:53.922, -0.4990,  0.2485,  0.2639
2019/09/12 13:56:53.929, -0.6921,  0.2583,  0.2404
2019/09/12 13:56:53.936, -0.6921,  0.2583,  0.2404
2019/09/12 13:56:53.941, -0.6921,  0.2583,  0.2404
2019/09/12 13:56:53.959, -0.4766, -0.1673,  0.0032
2019/09/12 13:56:53.986, -0.2501, -0.2491, -0.2696
2019/09/12 13:56:53.993, -0.2501, -0.2491, -0.2696
2019/09/12 13:56:54.010, -0.3453, -0.0107,  0.1672
2019/09/12 13:56:54.035, -0.6079,  0.1838,  0.4059
2019/09/12 13:56:54.053, -0.5205,  0.1349,  0.1606
2019/09/12 13:56:54.069, -0.3482,  0.1704, -0.0221
2019/09/12 13:56:54.087, -0.4300,  0.1404,  0.0556
2019/09/12 13:56:54.104, -0.4300,  0.1404,  0.0556
2019/09/12 13:56:54.121, -0.3637,  0.1038,  0.2556
2019/09/12 13:56:54.140, -0.3891, -0.0834,  0.3025
2019/09/12 13:56:54.163, -0.5047,  0.0855,  0.4695
2019/09/12 13:56:54.188, -0.6235,  0.1529, -0.0597
2019/09/12 13:56:54.203, -0.4233,  0.3804, -0.0013
2019/09/12 13:56:54.219, -0.5132,  0.2903,  0.2667
2019/09/12 13:56:54.240, -1.2925, -0.6494,  0.1908
2019/09/12 13:56:54.259, -1.7038, -0.1812, -0.1219
2019/09/12 13:56:54.280, -1.3867, -0.0938,  0.1650
2019/09/12 13:56:54.304, -1.2130, -0.4723,  0.1974
2019/09/12 13:56:54.320, -0.7401, -0.3493,  1.0778
2019/09/12 13:56:54.340, -0.6297, -0.1503,  1.1186
2019/09/12 13:56:54.361, -0.4773, -1.0125,  0.9107
2019/09/12 13:56:54.388,  1.0893, -0.8515, -1.4184
2019/09/12 13:56:54.405,  1.0893, -0.8515, -1.4184
2019/09/12 13:56:54.422,  3.2676, -1.8471, -2.9956
2019/09/12 13:56:54.439,  5.6771, -1.8263,  1.3721
2019/09/12 13:56:54.460,  4.4971, -0.7807,  3.6758
2019/09/12 13:56:54.480,  2.1499,  0.1793,  2.6545
2019/09/12 13:56:54.506, -0.7071,  0.1718,  2.5940
2019/09/12 13:56:54.522, -0.7071,  0.1718,  2.5940
2019/09/12 13:56:54.541,  0.1687, -0.6381,  1.2701
2019/09/12 13:56:54.559,  0.9163, -0.3921,  1.7051
2019/09/12 13:56:54.581,  0.5668, -1.1439,  1.8180
2019/09/12 13:56:54.605,  0.8503, -1.3318,  2.9693
2019/09/12 13:56:54.623,  0.4858, -0.6958,  3.7060
2019/09/12 13:56:54.640,  0.9962, -1.0566,  2.7147
2019/09/12 13:56:54.661,  1.4709, -0.5853,  1.3571
2019/09/12 13:56:54.680,  1.4906, -0.1889,  0.9320
2019/09/12 13:56:54.707,  0.9820, -0.5218,  0.7605
2019/09/12 13:56:54.723,  0.9820, -0.5218,  0.7605
2019/09/12 13:56:54.739,  0.6384, -0.5539,  0.6219
2019/09/12 13:56:54.760,  0.6338, -0.6591,  0.6784
2019/09/12 13:56:54.780,  0.3846, -0.5791, -0.0338
2019/09/12 13:56:54.800,  0.0026, -0.4139, -0.0960
2019/09/12 13:56:54.823, -0.3157, -0.5759, -0.0589
2019/09/12 13:56:54.840, -0.3683, -0.3508, -0.8148
2019/09/12 13:56:54.860, -0.4358, -1.2698, -1.0883
2019/09/12 13:56:54.880, -0.6809, -1.5327, -1.5222
2019/09/12 13:56:54.902, -0.4651, -1.4772, -2.0402
2019/09/12 13:56:54.924,  1.4554, -1.6127, -2.9983
2019/09/12 13:56:54.941,  1.6367, -1.8110, -3.0933
2019/09/12 13:56:54.959,  1.2132, -2.1040, -1.3956
2019/09/12 13:56:54.980,  1.9759, -2.1733, -0.1662
2019/09/12 13:56:54.999,  1.9671, -2.9638, -0.2625
2019/09/12 13:56:55.027,  2.4426, -3.0163, -0.7420
2019/09/12 13:56:55.042,  2.4426, -3.0163, -0.7420
2019/09/12 13:56:55.059,  2.3738, -1.8570, -0.3388
2019/09/12 13:56:55.080,  1.6109, -2.4064,  0.3860
2019/09/12 13:56:55.100,  0.7329, -3.2497,  1.1848
2019/09/12 13:56:55.124, -1.8924, -3.1601,  1.5402
2019/09/12 13:56:55.142,  0.0326, -2.3784,  0.5956
2019/09/12 13:56:55.160, -0.7803, -3.9682,  2.9749
2019/09/12 13:56:55.180, -1.4666, -0.9828,  2.2277
2019/09/12 13:56:55.200, -0.8804,  1.5440,  2.9679
2019/09/12 13:56:55.219, -0.3544,  1.3486,  1.9178
2019/09/12 13:56:55.243,  0.3309,  1.9563,  1.5661
2019/09/12 13:56:55.260,  0.1945,  2.0029,  0.3866
2019/09/12 13:56:55.279, -1.6337,  2.9919,  1.2884
2019/09/12 13:56:55.300, -0.9116,  1.2096, -0.5122
2019/09/12 13:56:55.320, -4.7923,  0.1702,  0.2539
2019/09/12 13:56:55.344, -6.0884,  0.4224,  3.4780
2019/09/12 13:56:55.360, -6.7882, -0.5810,  3.9938
2019/09/12 13:56:55.380, -6.8875, -1.6292,  3.3623
2019/09/12 13:56:55.399, -8.6890, -0.7150,  3.6385
2019/09/12 13:56:55.420, -8.4062, -0.0733,  0.8283
2019/09/12 13:56:55.444, -6.4017,  1.2242, -5.2451
2019/09/12 13:56:55.460, -3.1993,  0.2881, -3.1783
2019/09/12 13:56:55.480,  0.1699, -1.8893,  0.7841
2019/09/12 13:56:55.499,  0.3201, -0.8573,  1.4272
2019/09/12 13:56:55.520, -1.5864, -1.6301,  2.7423
2019/09/12 13:56:55.544, -1.1791,  0.0693,  3.5719
2019/09/12 13:56:55.563,  1.6952,  2.6149, -0.1892
2019/09/12 13:56:55.580, -0.1010,  3.0580, -0.9700
2019/09/12 13:56:55.599, -0.1455,  3.2360,  3.7501
2019/09/12 13:56:55.619,  1.2312,  1.9306,  1.1888
2019/09/12 13:56:55.640,  0.8547,  2.7460,  2.0174
2019/09/12 13:56:55.660,  1.2305,  3.5753,  0.3910
2019/09/12 13:56:55.680,  1.0956,  3.3837, -0.0406
2019/09/12 13:56:55.700,  1.0218,  3.2132,  0.1318
2019/09/12 13:56:55.719,  1.3748,  1.6848,  0.3025
2019/09/12 13:56:55.740, -1.4894, -0.7623,  1.0595
2019/09/12 13:56:55.760,  0.0668, -0.3075,  0.4970
2019/09/12 13:56:55.779,  2.3564,  1.4549, -0.5440
2019/09/12 13:56:55.800,  1.6690,  1.9693, -1.3991
2019/09/12 13:56:55.820,  0.5720,  2.8706, -1.0439
2019/09/12 13:56:55.840,  0.2885,  2.3806, -1.7436
2019/09/12 13:56:55.860, -0.3229,  2.1900, -0.3289
2019/09/12 13:56:55.879, -0.0350,  2.4555,  0.1961
2019/09/12 13:56:55.900, -1.5416,  2.8878, -0.6244
2019/09/12 13:56:55.920, -4.4087,  1.6518,  1.6006
2019/09/12 13:56:55.940, -4.0402,  0.8159,  3.5323
2019/09/12 13:56:55.961, -2.6823,  1.0756,  7.8427
2019/09/12 13:56:55.979, -1.4513, -0.8910,  7.1709
2019/09/12 13:56:56.000, -0.7381, -0.2466,  8.0212
2019/09/12 13:56:56.019, -0.4422, -1.0830,  4.8972
2019/09/12 13:56:56.040, -0.3074, -1.5378,  0.7693
2019/09/12 13:56:56.062,  0.5837, -0.5797,  2.6174
2019/09/12 13:56:56.079,  0.9837, -1.7326,  1.0765
2019/09/12 13:56:56.100,  1.9995, -2.2478,  2.1847
2019/09/12 13:56:56.119,  1.6939, -2.0782,  2.3938
2019/09/12 13:56:56.140,  1.7559, -2.2512,  1.9917
2019/09/12 13:56:56.165,  2.6858, -3.0476,  1.8794
2019/09/12 13:56:56.180,  2.5154, -1.9211,  0.9766
2019/09/12 13:56:56.201,  2.0103, -1.4127, -0.4174
2019/09/12 13:56:56.219,  1.2352, -0.9811, -1.3275
2019/09/12 13:56:56.239,  1.3181, -1.1503, -0.8201
2019/09/12 13:56:56.260,  2.1100, -0.7910, -0.4576
2019/09/12 13:56:56.280,  1.6932, -0.6429, -0.1519
2019/09/12 13:56:56.299,  1.8079,  0.1323, -0.3873
2019/09/12 13:56:56.319,  1.2867,  0.4309, -1.3550
2019/09/12 13:56:56.339,  1.6242, -0.9232, -0.2626
2019/09/12 13:56:56.359,  1.9078, -0.4327, -0.2411
2019/09/12 13:56:56.382,  0.9481,  0.4647, -0.6970
2019/09/12 13:56:56.399,  1.4798,  0.5112, -0.6860
2019/09/12 13:56:56.421,  0.6466,  0.4961, -1.0175
2019/09/12 13:56:56.440,  0.6089, -0.2643,  0.8935
2019/09/12 13:56:56.461,  1.2843,  0.0756,  2.6460
2019/09/12 13:56:56.483,  0.7998,  1.1897,  0.4957
2019/09/12 13:56:56.500,  0.4362,  0.9664, -0.2195
2019/09/12 13:56:56.520, -0.0443,  1.0025,  1.6249
2019/09/12 13:56:56.540,  0.3771,  0.9479,  1.4167
2019/09/12 13:56:56.560,  0.5831,  1.7888, -1.4132
2019/09/12 13:56:56.580,  0.2155,  1.6187, -2.1191
2019/09/12 13:56:56.601,  0.0708, -0.1111,  2.5589
2019/09/12 13:56:56.620,  1.1007, -1.3545,  4.7589
2019/09/12 13:56:56.640,  1.6055,  0.2857,  0.9705
2019/09/12 13:56:56.660,  1.4635,  0.8393, -0.0287
2019/09/12 13:56:56.680,  0.8382,  0.7595, -0.0606
2019/09/12 13:56:56.701,  0.2972,  0.3165, -0.1172
2019/09/12 13:56:56.727,  1.0462,  0.4577, -1.9999
2019/09/12 13:56:56.740,  1.0462,  0.4577, -1.9999
2019/09/12 13:56:56.760,  0.3447,  0.4721, -1.6267
2019/09/12 13:56:56.781,  0.5137,  0.1088, -2.6362
2019/09/12 13:56:56.804,  1.5303, -0.7411, -2.8478
2019/09/12 13:56:56.821, -1.0901, -0.0700,  0.4150
2019/09/12 13:56:56.840,  0.7966, -0.7807, -1.2959
2019/09/12 13:56:56.860,  1.4231, -1.0572, -1.7191
2019/09/12 13:56:56.881,  1.9516, -1.4421, -1.2266
2019/09/12 13:56:56.902,  2.1362, -1.3869, -0.7727
2019/09/12 13:56:56.919,  2.1286, -1.1536, -1.1931
2019/09/12 13:56:56.940,  2.2470, -1.5276, -1.0711
2019/09/12 13:56:56.959,  3.2044, -2.1011, -1.3462
2019/09/12 13:56:56.980,  3.4545, -1.8874, -1.8000
2019/09/12 13:56:57.023,  3.4693, -2.0027, -1.5898
2019/09/12 13:56:57.032,  3.4693, -2.0027, -1.5898
2019/09/12 13:56:57.065,  1.6806, -4.6106,  1.0918
2019/09/12 13:56:57.070,  1.6806, -4.6106,  1.0918
2019/09/12 13:56:57.081, -1.5847, -2.6090,  1.6066
2019/09/12 13:56:57.099, -4.2445, -1.1370,  2.8650
2019/09/12 13:56:57.119, -2.3862, -3.4302,  2.0153
2019/09/12 13:56:57.140, -1.2593, -5.8439,  2.9176
2019/09/12 13:56:57.160, -1.6331, -4.8229,  5.6628
2019/09/12 13:56:57.179, -3.5092, -3.4366,  6.2985
2019/09/12 13:56:57.199, -2.7252, -2.0974,  5.0080
2019/09/12 13:56:57.219, -3.0037, -1.4184,  2.4650
2019/09/12 13:56:57.238, -4.4028, -0.6971,  2.1355
2019/09/12 13:56:57.259, -5.9850,  4.6946, -0.9058
2019/09/12 13:56:57.279, -7.1586,  2.0522, -6.7384
2019/09/12 13:56:57.298, -3.4778, -5.5340,  7.0660
2019/09/12 13:56:57.319,  1.1789, -6.0123,  6.6280
2019/09/12 13:56:57.339,  1.3088, -4.8100,  5.8456
2019/09/12 13:56:57.358,  0.9529, -2.9409,  4.1662
2019/09/12 13:56:57.379, -1.2252, -4.0075,  4.1067
2019/09/12 13:56:57.437, -1.8784, -1.4877,  6.4558
2019/09/12 13:56:57.441, -1.8784, -1.4877,  6.4558
2019/09/12 13:56:57.452, -1.8784, -1.4877,  6.4558
2019/09/12 13:56:57.459, -0.1685,  0.3035,  7.9813
2019/09/12 13:56:57.478,  2.7614,  1.2541,  4.4584
2019/09/12 13:56:57.499,  4.8341,  0.6146,  4.1787
2019/09/12 13:56:57.520,  4.7488,  3.6145,  4.9296
2019/09/12 13:56:57.539,  2.6986, -0.6514, -5.0149
2019/09/12 13:56:57.559,  4.4543,  5.2653, -0.7033
2019/09/12 13:56:57.578,  3.8135,  2.3558, -1.1739
2019/09/12 13:56:57.599,  2.0862,  1.4616,  1.2044
2019/09/12 13:56:57.619,  1.1996,  1.1851,  0.8491
2019/09/12 13:56:57.639,  0.7452,  3.3696,  1.7080
2019/09/12 13:56:57.659, -1.1552,  5.0258,  2.0558
2019/09/12 13:56:57.679, -1.0342,  4.4013, -0.3578
2019/09/12 13:56:57.699, -1.2877,  2.7364,  2.4428
2019/09/12 13:56:57.719,  0.4947, -2.6275,  7.5927
2019/09/12 13:56:57.740,  1.8818, -3.0058,  5.7516
2019/09/12 13:56:57.759,  0.0796,  1.0821,  0.1459
2019/09/12 13:56:57.779,  0.5058,  3.5721,  0.9044
2019/09/12 13:56:57.798,  1.6298, -0.4205,  3.9058
2019/09/12 13:56:57.818,  1.3999,  0.0254,  3.6469
2019/09/12 13:56:57.839,  1.0558, -0.6268,  3.4303
2019/09/12 13:56:57.858,  2.6310, -2.6376,  0.8588
2019/09/12 13:56:57.879,  3.3300, -2.4805,  3.0016
2019/09/12 13:56:57.899,  2.4872, -2.7582,  3.7510
2019/09/12 13:56:57.919,  0.2602, -2.0900,  3.6640
2019/09/12 13:56:57.939,  1.5837, -2.3890,  4.7644
2019/09/12 13:56:57.959,  1.8811, -3.1929,  2.6536
2019/09/12 13:56:57.978,  1.0249, -1.7836,  2.5024
2019/09/12 13:56:57.999,  2.1037, -2.3176,  0.2910
2019/09/12 13:56:58.019,  2.0912, -4.5179,  3.5560
2019/09/12 13:56:58.038, -4.9892, -4.1706,  4.1565
2019/09/12 13:56:58.060, -5.6445, -1.8437,  4.6360
2019/09/12 13:56:58.079, -2.5479, -0.4932, -0.6346
2019/09/12 13:56:58.099, -0.0680,  0.7280,  2.5677
2019/09/12 13:56:58.118, -5.1314,  3.2863, -1.5856
2019/09/12 13:56:58.139, -2.9479,  4.9017, -0.2468
2019/09/12 13:56:58.159, -2.6477,  1.1950,  0.2281
2019/09/12 13:56:58.178,  0.2603,  5.3555,  0.2546
2019/09/12 13:56:58.199, -1.9625, -2.0094,  0.1157
2019/09/12 13:56:58.219,  2.1169,  1.7318,  2.8413
2019/09/12 13:56:58.238,  4.0910,  3.7471,  1.5037
2019/09/12 13:56:58.259,  3.3913, -0.6593,  2.3913
2019/09/12 13:56:58.280,  3.8041, -0.5516,  0.8944
2019/09/12 13:56:58.299,  3.8041, -0.5516,  0.8944
2019/09/12 13:56:58.319,  0.7827, -0.1107, -1.4451
2019/09/12 13:56:58.340,  0.0453, -0.4308,  0.3909
2019/09/12 13:56:58.360, -0.2422, -0.7792,  2.5936
2019/09/12 13:56:58.380,  0.0542, -1.9108,  2.2833
2019/09/12 13:56:58.401,  1.1769, -0.8691,  0.4186
2019/09/12 13:56:58.420, -2.0508,  0.8678,  0.3094
2019/09/12 13:56:58.440,  0.2858, -2.0392,  3.8913
2019/09/12 13:56:58.461, -3.9789,  1.1607,  0.2074
2019/09/12 13:56:58.480, -2.5221,  1.6856, -2.7849
2019/09/12 13:56:58.500, -0.2544,  0.8931, -0.6902
2019/09/12 13:56:58.520,  0.1585, -0.1185,  0.0792
2019/09/12 13:56:58.540, -0.0099, -0.3391,  0.5402
2019/09/12 13:56:58.560,  1.1356,  0.4506,  0.9268
2019/09/12 13:56:58.581, -0.2467,  1.1121,  0.3525
2019/09/12 13:56:58.600, -0.9107, -1.9126, -0.3459
2019/09/12 13:56:58.621,  0.1957,  0.4346,  0.6859
2019/09/12 13:56:58.640,  0.4282,  0.3900,  0.0507
2019/09/12 13:56:58.659,  0.4307,  1.2321, -0.6019
2019/09/12 13:56:58.679, -2.1278, -3.4537,  1.8099
2019/09/12 13:56:58.699, -5.0301, -1.4060,  2.9418
2019/09/12 13:56:58.719,  6.4681,  1.9593, -0.7068
2019/09/12 13:56:58.739,  0.2777,  0.6558, -1.4743
2019/09/12 13:56:58.759,  0.7357,  2.1509,  1.8549
2019/09/12 13:56:58.780, -1.2619,  0.6220,  0.8755
2019/09/12 13:56:58.799, -1.6424,  0.9251,  0.4497
2019/09/12 13:56:58.819, -1.5283,  0.5192,  0.8089
2019/09/12 13:56:58.840, -1.3929,  0.6058, -0.3376
2019/09/12 13:56:58.860, -0.6709, -0.5202,  0.0556
2019/09/12 13:56:58.879,  4.3406, -2.0190,  0.3805
2019/09/12 13:56:58.899, -0.4005, -0.0058,  0.2211
2019/09/12 13:56:58.919,  0.2108,  2.4119,  1.4517
2019/09/12 13:56:58.939,  0.5266,  3.5269,  1.7615
2019/09/12 13:56:58.961,  1.8903,  0.5704,  1.4696
2019/09/12 13:56:58.979,  4.0976, -1.1867,  0.3629
2019/09/12 13:56:58.999,  2.1333, -0.7206, -0.2676
2019/09/12 13:56:59.020,  2.9036, -0.9658, -1.2611
2019/09/12 13:56:59.041,  2.1847,  0.1781, -2.2241
2019/09/12 13:56:59.061,  0.3374,  1.0829, -1.0988
2019/09/12 13:56:59.081,  0.7959,  1.0218,  0.2912
2019/09/12 13:56:59.101,  1.8926, -1.5438,  1.5333
2019/09/12 13:56:59.121,  5.9845, -2.3646,  0.4044
2019/09/12 13:56:59.141,  2.8832,  1.5628,  0.1604
2019/09/12 13:56:59.161, -0.5786,  3.6499,  1.1156
2019/09/12 13:56:59.181, -3.1567,  2.1203, -0.1645
2019/09/12 13:56:59.200, -1.4644, -0.2900,  0.5008
2019/09/12 13:56:59.221, -6.4138,  0.1728,  2.2602
2019/09/12 13:56:59.241, -1.5972, -0.9744, -1.4242
2019/09/12 13:56:59.261, -0.2451, -3.1625,  0.4378
2019/09/12 13:56:59.280,  0.5211, -4.4276,  1.9114
2019/09/12 13:56:59.300,  0.5211, -4.4276,  1.9114
2019/09/12 13:56:59.321,  0.2005, -1.8232,  1.4290
2019/09/12 13:56:59.340, -0.4511,  0.0409, -1.0852
2019/09/12 13:56:59.359, -0.9059,  0.4340,  0.9561
2019/09/12 13:56:59.379,  0.0376,  0.2978,  1.3463
2019/09/12 13:56:59.399,  0.9911, -0.2720,  0.7400
2019/09/12 13:56:59.419,  1.4284, -1.7440, -1.2923
2019/09/12 13:56:59.439,  4.6771,  1.9069,  0.7557
2019/09/12 13:56:59.459,  3.8927,  2.0744, -1.1911
2019/09/12 13:56:59.479,  2.7936,  1.4699,  0.4582
2019/09/12 13:56:59.500,  0.6082, -1.3985,  0.6230
2019/09/12 13:56:59.521, -1.8570, -0.6969,  0.6517
2019/09/12 13:56:59.541, -2.4769,  1.9453,  0.1550
2019/09/12 13:56:59.560, -2.4408,  2.1904,  0.6407
2019/09/12 13:56:59.580, -2.3943, -1.8351,  1.0156
2019/09/12 13:56:59.601, -6.6018, -3.1436, -0.4107
2019/09/12 13:56:59.620, -3.0772, -1.1811,  0.5487
2019/09/12 13:56:59.640, -0.9604,  0.0282,  1.4584
2019/09/12 13:56:59.660, -1.5250, -2.7081,  0.7321
2019/09/12 13:56:59.679, -0.7622, -3.0572,  1.9646
2019/09/12 13:56:59.699,  3.2570, -2.0860,  1.8876
2019/09/12 13:56:59.720, -1.7407, -0.0142, -1.7826
2019/09/12 13:56:59.739, -0.6196,  0.1903,  0.6361
2019/09/12 13:56:59.761,  0.2376,  0.0753,  1.0608
2019/09/12 13:56:59.781,  0.5154,  0.1057,  1.2864
2019/09/12 13:56:59.800,  1.4788,  1.3879, -1.8230
2019/09/12 13:56:59.821,  0.3591,  1.4072,  1.1032
2019/09/12 13:56:59.841, -0.3943, -0.2064,  0.2823
2019/09/12 13:56:59.860,  0.2973,  1.0808, -0.0765
2019/09/12 13:56:59.881, -0.5098,  2.7383, -0.7403
2019/09/12 13:56:59.901,  0.0080,  0.2694, -0.0147
2019/09/12 13:56:59.921,  0.7159, -1.5369,  1.8949
2019/09/12 13:56:59.940,  0.3360,  0.8839, -0.8216
2019/09/12 13:56:59.960, -0.6800,  1.5949, -0.4130
2019/09/12 13:56:59.981, -1.0878, -0.4495, -0.5689
2019/09/12 13:57:00.000,  0.9280, -0.6101, -0.4058
2019/09/12 13:57:00.020, -0.2853, -0.9237,  0.1136
2019/09/12 13:57:00.040, -0.3931,  0.7941, -0.6293
2019/09/12 13:57:00.061, -1.8135,  0.4087,  0.0409
2019/09/12 13:57:00.084,  1.1027,  1.3809, -0.7379
2019/09/12 13:57:00.106,  0.9532,  2.6640, -0.3909
2019/09/12 13:57:00.121,  3.1089,  3.3345, -1.5453
2019/09/12 13:57:00.141,  1.0158,  1.1630,  1.1991
2019/09/12 13:57:00.161,  0.2297,  2.0457, -1.1182
2019/09/12 13:57:00.180, -3.9168, -0.9781, -2.9884
2019/09/12 13:57:00.200, -0.8400, -0.4679, -1.9680
2019/09/12 13:57:00.220, -0.7954, -0.2841,  1.0140
2019/09/12 13:57:00.240,  0.1450, -3.5557,  0.3998
2019/09/12 13:57:00.261,  0.5105, -5.3642, -1.2857
2019/09/12 13:57:00.280,  0.5925, -1.4996,  0.3123
2019/09/12 13:57:00.300,  0.5925, -1.4996,  0.3123
2019/09/12 13:57:00.320, -0.3451, -1.1613,  0.4689
2019/09/12 13:57:00.341,  0.8314,  0.1445, -0.6304
2019/09/12 13:57:00.360,  1.1420,  1.8074,  0.7428
2019/09/12 13:57:00.380,  0.7359,  2.5903, -2.4546
2019/09/12 13:57:00.400,  0.4810, -1.1832,  1.2610
2019/09/12 13:57:00.419, -2.0800, -0.1286, -0.5396
2019/09/12 13:57:00.439, -2.1449,  5.3336,  1.3590
2019/09/12 13:57:00.459,  0.8160,  4.1129, -2.3698
2019/09/12 13:57:00.479,  1.7678, -8.8010,  1.6135
2019/09/12 13:57:00.499, -3.7648,  3.0681, -0.2856
2019/09/12 13:57:00.519, -5.6635,  1.8269,  0.4757
2019/09/12 13:57:00.540, -6.0136,  3.2563,  0.8431
2019/09/12 13:57:00.560, -2.4998,  1.1139,  1.1942
2019/09/12 13:57:00.580, -0.8569, -1.1090,  2.5092
2019/09/12 13:57:00.600,  0.1638, -1.5482,  2.0726
2019/09/12 13:57:00.621,  5.1982, -2.3206,  1.3857
2019/09/12 13:57:00.640,  5.7200, -1.9814,  0.6085
2019/09/12 13:57:00.661,  3.2505, -0.8536,  0.7163
2019/09/12 13:57:00.681, -0.4837,  1.8311,  0.6542
2019/09/12 13:57:00.700,  0.1029,  1.5696, -0.1995
2019/09/12 13:57:00.720,  0.7030, -3.2118,  0.8236
2019/09/12 13:57:00.740, -0.0620, -4.5963,  0.6036
2019/09/12 13:57:00.761, -1.7244, -1.7391,  1.2111
2019/09/12 13:57:00.781,  1.0536, -3.0205, -0.2499
2019/09/12 13:57:00.800, -0.6656, -0.4162,  0.1204
2019/09/12 13:57:00.821, -0.0624, -3.3025,  0.7771
2019/09/12 13:57:00.841, -0.4607,  1.2798,  0.4398
2019/09/12 13:57:00.860,  0.8645,  0.6321,  0.1909
2019/09/12 13:57:00.881,  0.0859,  0.7402,  0.1278
2019/09/12 13:57:00.901,  0.3540,  1.4838,  0.1648
2019/09/12 13:57:00.921,  0.6993,  1.6384,  0.1008
2019/09/12 13:57:00.941,  0.0189,  1.1951,  0.4492
2019/09/12 13:57:00.961, -1.2202,  1.3086,  0.9394
2019/09/12 13:57:00.980, -0.2737, -0.0116,  0.2360
2019/09/12 13:57:01.001, -0.2425,  0.1448,  0.4527
2019/09/12 13:57:01.021,  1.0058,  0.9102,  0.8908
2019/09/12 13:57:01.040,  0.8490,  0.6836, -0.1056
2019/09/12 13:57:01.060, -1.0231,  3.4105,  0.2161
2019/09/12 13:57:01.081, -2.5504,  1.2177,  0.5767
2019/09/12 13:57:01.101,  2.8936,  3.6155, -1.3527
2019/09/12 13:57:01.121, -2.0395,  1.3742,  1.1351
2019/09/12 13:57:01.141, -0.1673,  0.4631, -0.1977
2019/09/12 13:57:01.160,  0.9505, -2.0285,  0.3423
2019/09/12 13:57:01.181, -1.2571,  0.7707,  0.6817
2019/09/12 13:57:01.200, -0.6022, -0.8690,  1.8728
2019/09/12 13:57:01.220, -1.2923, -2.6034,  0.5002
2019/09/12 13:57:01.240,  0.4381, -0.9947,  0.7214
2019/09/12 13:57:01.261, -0.3187,  0.1370,  0.3304
2019/09/12 13:57:01.280, -0.4905, -0.4236, -0.1346
2019/09/12 13:57:01.300, -0.4905, -0.4236, -0.1346
2019/09/12 13:57:01.321, -0.5407, -0.5587,  1.1035
2019/09/12 13:57:01.341,  2.6871, -1.0979,  0.2840
2019/09/12 13:57:01.361,  0.8829, -0.0522,  0.8357
2019/09/12 13:57:01.381,  0.2845,  0.1130,  0.7520
2019/09/12 13:57:01.401,  1.0745,  0.0767, -0.1124
2019/09/12 13:57:01.421,  0.8320, -0.9535,  1.2192
2019/09/12 13:57:01.440, -0.9801,  0.9989,  0.3685
2019/09/12 13:57:01.461, -0.8321,  0.1029,  0.3997
2019/09/12 13:57:01.481,  0.3768,  0.2507, -0.3237
2019/09/12 13:57:01.500, -0.1986, -0.1030,  0.1599
2019/09/12 13:57:01.521,  0.0944,  0.1018,  0.2023
2019/09/12 13:57:01.540,  0.4619,  0.0412,  0.1601
2019/09/12 13:57:01.560,  0.4985,  0.5083,  0.4176
2019/09/12 13:57:01.581,  0.3202, -0.0754,  0.4608
2019/09/12 13:57:01.601,  0.4059,  0.7870,  0.6627
2019/09/12 13:57:01.621, -0.3484,  0.4685,  0.2444
2019/09/12 13:57:01.640, -0.1134, -0.0202,  0.1824
2019/09/12 13:57:01.661,  0.0912, -0.2691,  0.3224
2019/09/12 13:57:01.680,  0.4859,  0.0889,  0.2475
2019/09/12 13:57:01.701,  0.0119, -0.1039,  0.0222
2019/09/12 13:57:01.724, -0.8703, -0.7069, -0.6951
2019/09/12 13:57:01.739, -0.2153,  0.0970,  0.5778
2019/09/12 13:57:01.759, -0.2606, -0.3119,  0.4191
2019/09/12 13:57:01.781,  0.0454, -0.4188,  0.8258
2019/09/12 13:57:01.801, -0.0084, -0.0142,  0.3730
2019/09/12 13:57:01.820,  0.2105, -0.8536,  0.9102
2019/09/12 13:57:01.840, -0.9686, -1.2634,  0.4478
2019/09/12 13:57:01.860,  0.9363,  1.6928,  0.4751
2019/09/12 13:57:01.881,  0.5500,  1.0143,  0.8415
2019/09/12 13:57:01.900, -0.4053, -0.1826,  0.6590
2019/09/12 13:57:01.921,  0.4169,  0.4162,  0.1076
2019/09/12 13:57:01.940, -0.0528,  0.5123,  0.1311
2019/09/12 13:57:01.961, -0.1187, -0.5147,  0.1904
2019/09/12 13:57:01.980, -0.5463, -0.8968,  0.1152
2019/09/12 13:57:02.008, -0.9864, -1.2711,  0.4749
2019/09/12 13:57:02.020,  0.5127, -0.1860, -0.3425
2019/09/12 13:57:02.048, -0.0759, -0.8136,  0.2344
2019/09/12 13:57:02.059,  0.1262, -0.6327,  0.0849
2019/09/12 13:57:02.079,  1.2022,  0.8157, -0.2574
2019/09/12 13:57:02.098, -0.2152, -0.2506, -0.2540
2019/09/12 13:57:02.119, -3.1865,  2.7200, -1.2863
2019/09/12 13:57:02.139,  1.3512,  0.7966,  1.5601
2019/09/12 13:57:02.159,  0.2649,  0.5802, -0.8786
2019/09/12 13:57:02.180,  0.4409,  0.1278, -0.0007
2019/09/12 13:57:02.199,  0.3656,  1.1318,  0.1015
2019/09/12 13:57:02.220,  0.1903,  0.2620,  0.0051
2019/09/12 13:57:02.240,  0.1835, -0.3788, -0.4307
2019/09/12 13:57:02.260, -0.0089, -1.1016, -0.3363
2019/09/12 13:57:02.280,  0.4642, -1.0135, -0.1298
2019/09/12 13:57:02.301,  0.4642, -1.0135, -0.1298
2019/09/12 13:57:02.321,  0.4286,  0.4228,  0.0504
2019/09/12 13:57:02.342,  0.1036, -0.2476, -1.2399
2019/09/12 13:57:02.361,  0.5163,  2.5428,  0.9878
2019/09/12 13:57:02.381,  0.3177, -0.1545, -0.6307
2019/09/12 13:57:02.400, -0.9335,  1.1313,  0.3985
2019/09/12 13:57:02.420, -0.4005,  0.3762,  0.3893
2019/09/12 13:57:02.440,  1.2512,  1.5987,  0.4159
2019/09/12 13:57:02.460,  0.1104,  0.1065, -0.0249
2019/09/12 13:57:02.480, -0.5833,  0.5952,  0.9494
2019/09/12 13:57:02.500,  0.2131, -0.1963, -0.5440
2019/09/12 13:57:02.520,  2.3379, -3.3389, -1.3560
2019/09/12 13:57:02.542, -2.9084,  2.8766,  1.4554
2019/09/12 13:57:02.560,  3.7017, -2.5273, -1.8572
2019/09/12 13:57:02.580,  0.0074,  1.4008, -0.7961
2019/09/12 13:57:02.600,  3.2447,  0.5228, -1.0455
2019/09/12 13:57:02.620, -0.3449,  3.8082,  2.8153
2019/09/12 13:57:02.640,  0.7528, -0.5496, -2.2902
2019/09/12 13:57:02.660, -3.6072, -0.8737, -0.7920
2019/09/12 13:57:02.680, -1.3321, -4.6718, -2.1595
2019/09/12 13:57:02.700, -1.3357, -2.5562, -1.2832
2019/09/12 13:57:02.721, -1.6932, -1.0491,  0.8399
2019/09/12 13:57:02.740, -4.2543,  2.3263,  2.0530
2019/09/12 13:57:02.760,  3.2295, -1.6707,  0.4218
2019/09/12 13:57:02.779, -3.1583,  0.8769,  0.8546
2019/09/12 13:57:02.799, -0.3156, -0.7413,  0.0904
2019/09/12 13:57:02.819,  1.2531, -0.3712,  0.6262
2019/09/12 13:57:02.838, -1.2586, -0.4870,  0.1767
2019/09/12 13:57:02.859, -0.1584, -2.5733,  0.5329
2019/09/12 13:57:02.879,  0.9149,  1.7997, -1.7309
2019/09/12 13:57:02.899,  2.0952,  0.0635,  0.1578
2019/09/12 13:57:02.920, -0.0291, -0.6728, -0.4820
2019/09/12 13:57:02.939, -0.6165, -0.0212, -0.1942
2019/09/12 13:57:02.970,  0.4459,  0.9275,  0.0195
2019/09/12 13:57:02.980, -0.9118, -1.8775,  1.1327
2019/09/12 13:57:02.999,  1.4075,  0.4600, -4.2637
2019/09/12 13:57:03.018,  0.9384,  0.6949, -0.3836
2019/09/12 13:57:03.039,  0.9850,  0.1334, -0.0328
2019/09/12 13:57:03.059, -0.4904, -1.1070, -0.5901
2019/09/12 13:57:03.078,  0.0096, -0.1717, -0.4511
2019/09/12 13:57:03.100,  0.1029, -0.2271, -0.4525
2019/09/12 13:57:03.126,  0.1029, -0.2271, -0.4525
2019/09/12 13:57:03.139,  0.1029, -0.2271, -0.4525
2019/09/12 13:57:03.159,  0.1029, -0.2271, -0.4525
2019/09/12 13:57:03.179,  0.1029, -0.2271, -0.4525
2019/09/12 13:57:03.198,  0.1029, -0.2271, -0.4525
2019/09/12 13:57:03.219,  0.1029, -0.2271, -0.4525
2019/09/12 13:57:03.240,  0.1029, -0.2271, -0.4525
2019/09/12 13:57:03.259,  0.1029, -0.2271, -0.4525
2019/09/12 13:57:03.279,  0.1029, -0.2271, -0.4525
2019/09/12 13:57:03.299,  0.1029, -0.2271, -0.4525
2019/09/12 13:57:03.319, -0.0792, -0.1266, -0.0674
2019/09/12 13:57:03.339, -0.2329,  0.9802, -2.2976
2019/09/12 13:57:03.360, -0.0114,  0.9124, -2.0363
2019/09/12 13:57:03.380, -0.0252,  0.8751, -2.1721
2019/09/12 13:57:03.400, -0.0379,  0.6891, -1.9696
2019/09/12 13:57:03.420, -0.2764,  1.4149, -0.9985
2019/09/12 13:57:03.441,  0.1797,  1.5705, -1.1710
2019/09/12 13:57:03.462, -0.1659,  1.1165, -1.2707
2019/09/12 13:57:03.484, -1.0223,  0.7669, -1.3853
2019/09/12 13:57:03.499, -1.7496,  1.2709, -1.2518
2019/09/12 13:57:03.519, -1.7496,  1.2709, -1.2518
2019/09/12 13:57:03.538, -1.7496,  1.2709, -1.2518
2019/09/12 13:57:03.559, -1.7496,  1.2709, -1.2518
2019/09/12 13:57:03.579, -1.7496,  1.2709, -1.2518
2019/09/12 13:57:03.598, -1.7496,  1.2709, -1.2518
2019/09/12 13:57:03.619, -1.7496,  1.2709, -1.2518
2019/09/12 13:57:03.639, -1.7496,  1.2709, -1.2518
2019/09/12 13:57:03.658, -1.7496,  1.2709, -1.2518
2019/09/12 13:57:03.678, -1.3013, -0.3339, -0.1571
2019/09/12 13:57:03.699,  0.4134,  2.8561, -0.5695
2019/09/12 13:57:03.718,  1.5437,  1.3955,  0.0601
2019/09/12 13:57:03.739, -0.4530,  0.3964,  0.5040
2019/09/12 13:57:03.760, -0.5331,  0.9395,  0.2205
2019/09/12 13:57:03.779, -3.0419, -0.8796, -0.7191
2019/09/12 13:57:03.799, -1.4958, -0.1259, -0.2606
2019/09/12 13:57:03.821, -0.8635,  2.8803, -0.7657
2019/09/12 13:57:03.840, -0.3300,  0.1467,  1.0989
2019/09/12 13:57:03.862,  0.4570,  0.8668, -1.2358
2019/09/12 13:57:03.880,  2.2986,  3.4623, -1.7597
2019/09/12 13:57:41.083,  2.2986,  3.4623, -1.7597
2019/09/12 13:57:41.085,  2.2986,  3.4623, -1.7597
2019/09/12 13:57:41.087,  2.2986,  3.4623, -1.7597
2019/09/12 13:57:41.089,  2.2986,  3.4623, -1.7597
2019/09/12 13:57:41.091,  2.2986,  3.4623, -1.7597
2019/09/12 13:57:41.093,  2.2986,  3.4623, -1.7597
2019/09/12 13:57:41.095,  2.2986,  3.4623, -1.7597
2019/09/12 13:57:41.097,  2.2986,  3.4623, -1.7597
2019/09/12 13:57:41.099,  2.2986,  3.4623, -1.7597
2019/09/12 13:57:41.101,  2.2986,  3.4623, -1.7597
2019/09/12 13:57:41.103,  2.2986,  3.4623, -1.7597
2019/09/12 13:57:41.106,  2.2986,  3.4623, -1.7597
2019/09/12 13:57:41.108,  2.2986,  3.4623, -1.7597
2019/09/12 13:57:41.110,  2.2986,  3.4623, -1.7597
2019/09/12 13:57:41.112,  2.2986,  3.4623, -1.7597
2019/09/12 13:57:41.114,  2.2986,  3.4623, -1.7597
2019/09/12 13:57:41.116,  2.2986,  3.4623, -1.7597
2019/09/12 13:57:41.118,  2.2986,  3.4623, -1.7597
2019/09/12 13:57:41.120,  2.2986,  3.4623, -1.7597
2019/09/12 13:57:41.122,  2.2986,  3.4623, -1.7597
2019/09/12 13:57:41.125,  2.2986,  3.4623, -1.7597
2019/09/12 13:57:41.127,  2.2986,  3.4623, -1.7597
2019/09/12 13:57:41.129,  2.2986,  3.4623, -1.7597
2019/09/12 13:57:41.131,  2.2986,  3.4623, -1.7597
2019/09/12 14:01:52.096,  2.2986,  3.4623, -1.7597
2019/09/12 14:01:52.109, -0.4831,  2.2545, -0.2032
2019/09/12 14:01:52.113, -0.4831,  2.2545, -0.2032
2019/09/12 14:01:52.115, -0.4831,  2.2545, -0.2032
2019/09/12 14:01:52.117, -0.4831,  2.2545, -0.2032
2019/09/12 14:01:52.142,  2.5261, -0.9737,  1.0832
2019/09/12 14:01:52.146, -2.1137,  4.6637, -3.5710
2019/09/12 14:01:52.150,  6.0055,  0.1751,  1.3402
2019/09/12 14:01:52.160, -1.5118,  0.5797, -0.8518
2019/09/12 14:01:52.162, -1.5118,  0.5797, -0.8518
2019/09/12 14:01:52.164, -1.5118,  0.5797, -0.8518
2019/09/12 14:01:52.168, -1.5118,  0.5797, -0.8518
2019/09/12 14:01:52.170, -1.5118,  0.5797, -0.8518
2019/09/12 14:01:52.178, -1.5118,  0.5797, -0.8518
2019/09/12 14:01:52.180, -1.5118,  0.5797, -0.8518
2019/09/12 14:01:52.184, -1.5118,  0.5797, -0.8518
2019/09/12 14:01:52.186, -1.5118,  0.5797, -0.8518
2019/09/12 14:01:52.189, -1.5118,  0.5797, -0.8518
2019/09/12 14:01:52.192, -1.5118,  0.5797, -0.8518
2019/09/12 14:01:52.193, -1.5118,  0.5797, -0.8518
2019/09/12 14:01:52.196, -1.5118,  0.5797, -0.8518
2019/09/12 14:01:52.198, -1.5118,  0.5797, -0.8518
2019/09/12 14:01:52.200, -1.5118,  0.5797, -0.8518
2019/09/12 14:01:52.206, -1.5118,  0.5797, -0.8518
2019/09/12 14:01:52.208, -1.5118,  0.5797, -0.8518
2019/09/12 14:01:52.211, -1.5118,  0.5797, -0.8518
2019/09/12 14:01:52.218, -1.5118,  0.5797, -0.8518
2019/09/12 14:01:52.220, -1.5118,  0.5797, -0.8518
2019/09/12 14:01:52.223, -1.5118,  0.5797, -0.8518
2019/09/12 14:01:52.225, -1.5118,  0.5797, -0.8518
2019/09/12 14:01:52.227, -1.5118,  0.5797, -0.8518
2019/09/12 14:01:52.230, -1.5118,  0.5797, -0.8518
2019/09/12 14:01:52.233, -1.5118,  0.5797, -0.8518
2019/09/12 14:01:52.235, -1.5118,  0.5797, -0.8518
2019/09/12 14:01:52.240, -1.5118,  0.5797, -0.8518
2019/09/12 14:01:52.249, -0.4529, -0.0336,  3.4171
2019/09/12 14:01:52.251, -0.4529, -0.0336,  3.4171
2019/09/12 14:01:52.253, -0.4529, -0.0336,  3.4171
2019/09/12 14:01:52.254, -0.4529, -0.0336,  3.4171
2019/09/12 14:01:52.256, -0.4529, -0.0336,  3.4171
2019/09/12 14:01:52.279, -2.3156,  3.2037, -1.7973
2019/09/12 14:01:52.285, -1.7959,  2.5829, -1.9670
2019/09/12 14:01:52.288, -1.7959,  2.5829, -1.9670
2019/09/12 14:01:52.293, -1.7959,  2.5829, -1.9670
2019/09/12 14:01:52.296, -1.7959,  2.5829, -1.9670
2019/09/12 14:01:52.302, -2.1418,  2.2190, -1.5931
2019/09/12 14:01:52.305, -2.1418,  2.2190, -1.5931
2019/09/12 14:01:52.310, -2.1418,  2.2190, -1.5931
2019/09/12 14:01:52.315, -2.1418,  2.2190, -1.5931
2019/09/12 14:01:52.320, -2.1418,  2.2190, -1.5931
2019/09/12 14:01:52.330, -2.3171,  3.1583, -1.6556
2019/09/12 14:01:52.333, -2.3171,  3.1583, -1.6556
2019/09/12 14:01:52.338, -2.3171,  3.1583, -1.6556
2019/09/12 14:01:52.345, -2.1706,  2.4522, -1.5192
2019/09/12 14:01:52.353, -2.1706,  2.4522, -1.5192
2019/09/12 14:01:52.362, -2.1706,  2.4522, -1.5192
2019/09/12 14:01:52.369, -1.1189,  1.7937, -1.1410
2019/09/12 14:01:52.372, -1.1189,  1.7937, -1.1410
2019/09/12 14:01:52.375, -1.1189,  1.7937, -1.1410
2019/09/12 14:01:52.378, -1.1189,  1.7937, -1.1410
2019/09/12 14:01:52.381, -0.5981,  1.4102, -0.4468
2019/09/12 14:01:52.383, -0.5981,  1.4102, -0.4468
2019/09/12 14:01:52.386, -0.5981,  1.4102, -0.4468
2019/09/12 14:01:52.388, -0.5981,  1.4102, -0.4468
2019/09/12 14:01:52.392, -0.5981,  1.4102, -0.4468
2019/09/12 14:01:52.395, -0.5981,  1.4102, -0.4468
2019/09/12 14:01:52.398, -0.5981,  1.4102, -0.4468
2019/09/12 14:01:52.401, -0.6048,  1.8501,  0.5787
2019/09/12 14:01:52.404, -0.6048,  1.8501,  0.5787
2019/09/12 14:01:52.406, -0.6048,  1.8501,  0.5787
2019/09/12 14:01:52.409, -0.6048,  1.8501,  0.5787
2019/09/12 14:01:52.412, -0.6048,  1.8501,  0.5787
2019/09/12 14:01:52.417, -0.6048,  1.8501,  0.5787
2019/09/12 14:01:52.420, -0.6048,  1.8501,  0.5787
2019/09/12 14:01:52.422, -0.6048,  1.8501,  0.5787
2019/09/12 14:01:52.426, -0.5973,  1.6716,  0.6112
2019/09/12 14:01:52.429, -0.5973,  1.6716,  0.6112
2019/09/12 14:01:52.432, -0.5973,  1.6716,  0.6112
2019/09/12 14:01:52.435, -0.5973,  1.6716,  0.6112
2019/09/12 14:01:52.438, -0.5973,  1.6716,  0.6112
2019/09/12 14:01:52.441, -0.5973,  1.6716,  0.6112
2019/09/12 14:01:52.444, -0.5973,  1.6716,  0.6112
2019/09/12 14:01:52.447, -0.9369,  1.7780, -1.0991
2019/09/12 14:01:52.450, -0.9369,  1.7780, -1.0991
2019/09/12 14:01:52.452, -0.9369,  1.7780, -1.0991
2019/09/12 14:01:52.455, -0.9369,  1.7780, -1.0991
2019/09/12 14:01:52.458, -0.9369,  1.7780, -1.0991
2019/09/12 14:01:52.460, -0.9369,  1.7780, -1.0991
2019/09/12 14:01:52.464, -0.9369,  1.7780, -1.0991
2019/09/12 14:01:52.467, -0.7822,  0.6190, -0.7946
2019/09/12 14:01:52.470, -0.7822,  0.6190, -0.7946
2019/09/12 14:01:52.473, -0.7822,  0.6190, -0.7946
2019/09/12 14:01:52.475, -0.7822,  0.6190, -0.7946
2019/09/12 14:01:52.478, -0.7822,  0.6190, -0.7946
2019/09/12 14:01:52.481, -0.7822,  0.6190, -0.7946
2019/09/12 14:01:52.484, -0.7822,  0.6190, -0.7946
2019/09/12 14:01:52.488, -0.6214, -0.8237,  2.2216
2019/09/12 14:01:52.492, -0.6214, -0.8237,  2.2216
2019/09/12 14:01:52.495, -0.6214, -0.8237,  2.2216
2019/09/12 14:01:52.498, -0.6214, -0.8237,  2.2216
2019/09/12 14:01:52.502, -0.6214, -0.8237,  2.2216
2019/09/12 14:01:52.505, -0.7775, -0.8142,  4.0202
2019/09/12 14:01:52.508, -0.7775, -0.8142,  4.0202
2019/09/12 14:01:52.512, -0.7775, -0.8142,  4.0202
2019/09/12 14:01:52.515, -0.7775, -0.8142,  4.0202
2019/09/12 14:01:52.519, -0.7775, -0.8142,  4.0202
2019/09/12 14:01:52.522, -0.7775, -0.8142,  4.0202
2019/09/12 14:01:52.526, -0.7401,  0.4343,  1.7764
2019/09/12 14:01:52.529, -0.7401,  0.4343,  1.7764
2019/09/12 14:01:52.532, -0.7401,  0.4343,  1.7764
2019/09/12 14:01:52.536, -0.7401,  0.4343,  1.7764
2019/09/12 14:01:52.540, -0.7401,  0.4343,  1.7764
2019/09/12 14:01:52.543, -0.7401,  0.4343,  1.7764
2019/09/12 14:01:52.546, -0.1681,  1.5029, -0.8517
2019/09/12 14:01:52.550, -0.1681,  1.5029, -0.8517
2019/09/12 14:01:52.553, -0.1681,  1.5029, -0.8517
2019/09/12 14:01:52.556, -0.1681,  1.5029, -0.8517
2019/09/12 14:01:52.560, -0.1681,  1.5029, -0.8517
2019/09/12 14:01:52.562, -0.1681,  1.5029, -0.8517
2019/09/12 14:01:52.565, -0.5072,  1.8861, -3.3252
2019/09/12 14:01:52.568, -0.5072,  1.8861, -3.3252
2019/09/12 14:01:52.571, -0.5072,  1.8861, -3.3252
2019/09/12 14:01:52.574, -0.5072,  1.8861, -3.3252
2019/09/12 14:01:52.576, -0.5072,  1.8861, -3.3252
2019/09/12 14:01:52.579, -0.5072,  1.8861, -3.3252
2019/09/12 14:01:52.582, -0.5072,  1.8861, -3.3252
2019/09/12 14:01:52.587, -0.2701,  1.2768, -3.1556
2019/09/12 14:01:52.589, -0.2701,  1.2768, -3.1556
2019/09/12 14:01:52.591, -0.2701,  1.2768, -3.1556
2019/09/12 14:01:52.595, -0.2701,  1.2768, -3.1556
2019/09/12 14:01:52.598, -0.2701,  1.2768, -3.1556
2019/09/12 14:01:52.601, -0.2701,  1.2768, -3.1556
2019/09/12 14:01:52.604, -0.2701,  1.2768, -3.1556
2019/09/12 14:01:52.608, -0.1792,  0.4574, -1.0227
2019/09/12 14:01:52.611, -0.1792,  0.4574, -1.0227
2019/09/12 14:01:52.615, -0.1792,  0.4574, -1.0227
2019/09/12 14:01:52.617, -0.1792,  0.4574, -1.0227
2019/09/12 14:01:52.620, -0.1792,  0.4574, -1.0227
2019/09/12 14:01:52.623, -0.1792,  0.4574, -1.0227
2019/09/12 14:01:52.627, -1.2085, -0.8419,  1.6557
2019/09/12 14:01:52.629, -1.2085, -0.8419,  1.6557
2019/09/12 14:01:52.633, -1.2085, -0.8419,  1.6557
2019/09/12 14:01:52.636, -1.2085, -0.8419,  1.6557
2019/09/12 14:01:52.639, -1.2085, -0.8419,  1.6557
2019/09/12 14:01:52.642, -1.2085, -0.8419,  1.6557
2019/09/12 14:01:52.645, -1.2085, -0.8419,  1.6557
2019/09/12 14:01:52.649, -1.7849, -0.2460,  2.4735
2019/09/12 14:01:52.652, -1.7849, -0.2460,  2.4735
2019/09/12 14:01:52.656, -1.7849, -0.2460,  2.4735
2019/09/12 14:01:52.659, -1.7849, -0.2460,  2.4735
2019/09/12 14:01:52.663, -1.7849, -0.2460,  2.4735
2019/09/12 14:01:52.666, -0.9658,  0.2821,  2.2115
2019/09/12 14:01:52.670, -0.9658,  0.2821,  2.2115
2019/09/12 14:01:52.672, -0.9658,  0.2821,  2.2115
2019/09/12 14:01:52.675, -0.9658,  0.2821,  2.2115
2019/09/12 14:01:52.678, -0.9658,  0.2821,  2.2115
2019/09/12 14:01:52.681, -0.9658,  0.2821,  2.2115
2019/09/12 14:01:52.684, -0.9658,  0.2821,  2.2115
2019/09/12 14:01:52.687, -0.4637,  0.5479,  0.4692
2019/09/12 14:01:52.691, -0.4637,  0.5479,  0.4692
2019/09/12 14:01:52.694, -0.4637,  0.5479,  0.4692
2019/09/12 14:01:52.697, -0.4637,  0.5479,  0.4692
2019/09/12 14:01:52.700, -0.4637,  0.5479,  0.4692
2019/09/12 14:01:52.703, -0.4637,  0.5479,  0.4692
2019/09/12 14:01:52.706, -0.2865,  0.8765, -1.0874
2019/09/12 14:01:52.708, -0.2865,  0.8765, -1.0874
2019/09/12 14:01:52.711, -0.2865,  0.8765, -1.0874
2019/09/12 14:01:52.714, -0.2865,  0.8765, -1.0874
2019/09/12 14:01:52.717, -0.2865,  0.8765, -1.0874
2019/09/12 14:01:52.720, -0.2865,  0.8765, -1.0874
2019/09/12 14:01:52.723, -0.2865,  0.8765, -1.0874
2019/09/12 14:01:52.725, -0.0754,  0.8468, -1.3219
2019/09/12 14:01:52.728, -0.0754,  0.8468, -1.3219
2019/09/12 14:01:52.731, -0.0754,  0.8468, -1.3219
2019/09/12 14:01:52.733, -0.0754,  0.8468, -1.3219
2019/09/12 14:01:52.735, -0.0754,  0.8468, -1.3219
2019/09/12 14:01:52.738, -0.0754,  0.8468, -1.3219
2019/09/12 14:01:52.740, -0.0754,  0.8468, -1.3219
2019/09/12 14:01:52.744, -0.0754,  0.8468, -1.3219
2019/09/12 14:01:52.746, -0.0754,  0.8468, -1.3219
2019/09/12 14:01:52.749,  0.5154, -0.0554, -0.6446
2019/09/12 14:01:52.752,  0.5154, -0.0554, -0.6446
2019/09/12 14:01:52.755,  0.5154, -0.0554, -0.6446
2019/09/12 14:01:52.758,  0.5154, -0.0554, -0.6446
2019/09/12 14:01:52.760,  0.5154, -0.0554, -0.6446
2019/09/12 14:01:52.764,  0.5154, -0.0554, -0.6446
2019/09/12 14:01:52.766,  0.3012, -0.1407,  0.0922
2019/09/12 14:01:52.769,  0.3012, -0.1407,  0.0922
2019/09/12 14:01:52.772,  0.3012, -0.1407,  0.0922
2019/09/12 14:01:52.774,  0.3012, -0.1407,  0.0922
2019/09/12 14:01:52.776,  0.3012, -0.1407,  0.0922
2019/09/12 14:01:52.779,  0.3012, -0.1407,  0.0922
2019/09/12 14:01:52.780,  0.3012, -0.1407,  0.0922
2019/09/12 14:01:52.783,  0.3012, -0.1407,  0.0922
2019/09/12 14:01:52.785,  0.3012, -0.1407,  0.0922
2019/09/12 14:01:52.788, -1.3190,  0.4890, -0.1698
2019/09/12 14:01:52.790, -1.3190,  0.4890, -0.1698
2019/09/12 14:01:52.792, -1.3190,  0.4890, -0.1698
2019/09/12 14:01:52.795, -1.3190,  0.4890, -0.1698
2019/09/12 14:01:52.797, -1.3190,  0.4890, -0.1698
2019/09/12 14:01:52.799, -1.3190,  0.4890, -0.1698
2019/09/12 14:01:52.802, -1.3190,  0.4890, -0.1698
2019/09/12 14:01:52.804, -1.3190,  0.4890, -0.1698
2019/09/12 14:01:52.807, -1.3970,  0.7676,  1.0000
2019/09/12 14:01:52.810, -1.3970,  0.7676,  1.0000
2019/09/12 14:01:52.813, -1.3970,  0.7676,  1.0000
2019/09/12 14:01:52.816, -1.3970,  0.7676,  1.0000
2019/09/12 14:01:52.819, -1.3970,  0.7676,  1.0000
2019/09/12 14:01:52.821, -1.3970,  0.7676,  1.0000
2019/09/12 14:01:52.824, -1.3970,  0.7676,  1.0000
2019/09/12 14:01:52.826, -0.6291,  0.8065, -0.0942
2019/09/12 14:01:52.829, -0.6291,  0.8065, -0.0942
2019/09/12 14:01:52.830, -0.6291,  0.8065, -0.0942
2019/09/12 14:01:52.832, -0.6291,  0.8065, -0.0942
2019/09/12 14:01:52.834, -0.6291,  0.8065, -0.0942
2019/09/12 14:01:52.837, -0.6291,  0.8065, -0.0942
2019/09/12 14:01:52.840, -0.6291,  0.8065, -0.0942
2019/09/12 14:01:52.843, -0.6291,  0.8065, -0.0942
2019/09/12 14:01:52.847, -0.8235,  0.9568, -1.3395
2019/09/12 14:01:52.851, -0.8235,  0.9568, -1.3395
2019/09/12 14:01:52.853, -0.8235,  0.9568, -1.3395
2019/09/12 14:01:52.856, -0.8235,  0.9568, -1.3395
2019/09/12 14:01:52.858, -0.8235,  0.9568, -1.3395
2019/09/12 14:01:52.861, -0.8235,  0.9568, -1.3395
2019/09/12 14:01:52.863, -0.8235,  0.9568, -1.3395
2019/09/12 14:01:52.866, -0.7278,  1.0198, -1.6641
2019/09/12 14:01:52.868, -0.7278,  1.0198, -1.6641
2019/09/12 14:01:52.870, -0.7278,  1.0198, -1.6641
2019/09/12 14:01:52.872, -0.7278,  1.0198, -1.6641
2019/09/12 14:01:52.876, -0.7278,  1.0198, -1.6641
2019/09/12 14:01:52.879, -0.7278,  1.0198, -1.6641
2019/09/12 14:01:52.881, -0.7278,  1.0198, -1.6641
2019/09/12 14:01:52.883, -0.7278,  1.0198, -1.6641
2019/09/12 14:01:52.886, -0.2889,  1.4452, -1.3905
2019/09/12 14:01:52.888, -0.2889,  1.4452, -1.3905
2019/09/12 14:01:52.890, -0.2889,  1.4452, -1.3905
2019/09/12 14:01:52.893, -0.2889,  1.4452, -1.3905
2019/09/12 14:01:52.896, -0.2889,  1.4452, -1.3905
2019/09/12 14:01:52.898, -0.2889,  1.4452, -1.3905
2019/09/12 14:01:52.900, -0.2889,  1.4452, -1.3905
2019/09/12 14:01:52.902, -0.2889,  1.4452, -1.3905
2019/09/12 14:01:52.905, -0.2889,  1.4452, -1.3905
2019/09/12 14:01:52.907,  0.0834,  1.8477, -0.8833
2019/09/12 14:01:52.911,  0.0834,  1.8477, -0.8833
2019/09/12 14:01:52.913,  0.0834,  1.8477, -0.8833
2019/09/12 14:01:52.915,  0.0834,  1.8477, -0.8833
2019/09/12 14:01:52.916,  0.0834,  1.8477, -0.8833
2019/09/12 14:01:52.918,  0.0834,  1.8477, -0.8833
2019/09/12 14:01:52.921,  0.0834,  1.8477, -0.8833
2019/09/12 14:01:52.923,  0.0834,  1.8477, -0.8833
2019/09/12 14:01:52.925, -0.4995,  0.1363, -1.1438
2019/09/12 14:01:52.927, -0.4995,  0.1363, -1.1438
2019/09/12 14:01:52.930, -0.4995,  0.1363, -1.1438
2019/09/12 14:01:52.932, -0.4995,  0.1363, -1.1438
2019/09/12 14:01:52.935, -0.4995,  0.1363, -1.1438
2019/09/12 14:01:52.937, -0.4995,  0.1363, -1.1438
2019/09/12 14:01:52.939, -0.4995,  0.1363, -1.1438
2019/09/12 14:01:52.941, -0.4995,  0.1363, -1.1438
2019/09/12 14:01:52.944, -0.4995,  0.1363, -1.1438
2019/09/12 14:01:52.947,  0.2033, -0.0921, -0.3237
2019/09/12 14:01:52.949,  0.2033, -0.0921, -0.3237
2019/09/12 14:01:52.952,  0.2033, -0.0921, -0.3237
2019/09/12 14:01:52.954,  0.2033, -0.0921, -0.3237
2019/09/12 14:01:52.957,  0.2033, -0.0921, -0.3237
2019/09/12 14:01:52.959,  0.2033, -0.0921, -0.3237
2019/09/12 14:01:52.961,  0.2033, -0.0921, -0.3237
2019/09/12 14:01:52.964,  0.2033, -0.0921, -0.3237
2019/09/12 14:01:52.966,  0.7006, -0.0850, -1.2403
2019/09/12 14:01:52.969,  0.7006, -0.0850, -1.2403
2019/09/12 14:01:52.973,  0.7006, -0.0850, -1.2403
2019/09/12 14:01:52.975,  0.7006, -0.0850, -1.2403
2019/09/12 14:01:52.978,  0.7006, -0.0850, -1.2403
2019/09/12 14:01:52.981,  0.7006, -0.0850, -1.2403
2019/09/12 14:01:52.983,  0.7006, -0.0850, -1.2403
2019/09/12 14:01:52.985, -0.4261,  0.0777,  1.2523
2019/09/12 14:01:52.988, -0.4261,  0.0777,  1.2523
2019/09/12 14:01:52.990, -0.4261,  0.0777,  1.2523
2019/09/12 14:01:52.992, -0.4261,  0.0777,  1.2523
2019/09/12 14:01:52.995, -0.4261,  0.0777,  1.2523
2019/09/12 14:01:52.996, -0.4261,  0.0777,  1.2523
2019/09/12 14:01:52.999, -0.4261,  0.0777,  1.2523
2019/09/12 14:01:53.004, -0.4261,  0.0777,  1.2523
2019/09/12 14:01:53.007, -1.3863,  0.3959,  3.0430
2019/09/12 14:01:53.009, -1.3863,  0.3959,  3.0430
2019/09/12 14:01:53.014, -1.3863,  0.3959,  3.0430
2019/09/12 14:01:53.016, -1.3863,  0.3959,  3.0430
2019/09/12 14:01:53.019, -1.3863,  0.3959,  3.0430
2019/09/12 14:01:53.021, -1.3863,  0.3959,  3.0430
2019/09/12 14:01:53.023, -1.3863,  0.3959,  3.0430
2019/09/12 14:01:53.026, -0.6538,  0.9627,  4.1362
2019/09/12 14:01:53.027, -0.6538,  0.9627,  4.1362
2019/09/12 14:01:53.029, -0.6538,  0.9627,  4.1362
2019/09/12 14:01:53.033, -0.6538,  0.9627,  4.1362
2019/09/12 14:01:53.035, -0.6538,  0.9627,  4.1362
2019/09/12 14:01:53.038, -0.6538,  0.9627,  4.1362
2019/09/12 14:01:53.040, -0.6538,  0.9627,  4.1362
2019/09/12 14:01:53.042, -0.6538,  0.9627,  4.1362
2019/09/12 14:01:53.044, -0.6538,  0.9627,  4.1362
2019/09/12 14:01:53.046, -0.8448,  0.1328,  1.5399
2019/09/12 14:01:53.050, -0.8448,  0.1328,  1.5399
2019/09/12 14:01:53.053, -0.8448,  0.1328,  1.5399
2019/09/12 14:01:53.056, -0.8448,  0.1328,  1.5399
2019/09/12 14:01:53.058, -0.8448,  0.1328,  1.5399
2019/09/12 14:01:53.060, -0.8448,  0.1328,  1.5399
2019/09/12 14:01:53.068, -0.8448,  0.1328,  1.5399
2019/09/12 14:01:53.070,  0.3437,  0.1082, -2.6111
2019/09/12 14:01:53.072,  0.3437,  0.1082, -2.6111
2019/09/12 14:01:53.074,  0.3437,  0.1082, -2.6111
2019/09/12 14:01:53.076,  0.3437,  0.1082, -2.6111
2019/09/12 14:01:53.081,  0.3437,  0.1082, -2.6111
2019/09/12 14:01:53.083,  0.3437,  0.1082, -2.6111
2019/09/12 14:01:53.086,  1.8915,  0.4226,  0.1433
2019/09/12 14:01:53.089,  1.8915,  0.4226,  0.1433
2019/09/12 14:01:53.092,  1.8915,  0.4226,  0.1433
2019/09/12 14:01:53.095,  1.8915,  0.4226,  0.1433
2019/09/12 14:01:53.098,  1.8915,  0.4226,  0.1433
2019/09/12 14:01:53.101,  1.8915,  0.4226,  0.1433
2019/09/12 14:01:53.103,  1.8915,  0.4226,  0.1433
2019/09/12 14:01:53.105,  0.3781, -1.5068,  3.7202
2019/09/12 14:01:53.107,  0.3781, -1.5068,  3.7202
2019/09/12 14:01:53.109,  0.3781, -1.5068,  3.7202
2019/09/12 14:01:53.111,  0.3781, -1.5068,  3.7202
2019/09/12 14:01:53.113,  0.3781, -1.5068,  3.7202
2019/09/12 14:01:53.115,  0.3781, -1.5068,  3.7202
2019/09/12 14:01:53.117,  0.3781, -1.5068,  3.7202
2019/09/12 14:01:53.119,  0.3781, -1.5068,  3.7202
2019/09/12 14:01:53.121,  0.3781, -1.5068,  3.7202
2019/09/12 14:01:53.123,  0.3781, -1.5068,  3.7202
2019/09/12 14:01:53.124,  0.3781, -1.5068,  3.7202
2019/09/12 14:01:53.126,  0.3781, -1.5068,  3.7202
2019/09/12 14:01:53.129, -2.6022, -1.9348,  3.0448
2019/09/12 14:01:53.130, -2.6022, -1.9348,  3.0448
2019/09/12 14:01:53.132, -2.6022, -1.9348,  3.0448
2019/09/12 14:01:53.135, -2.6022, -1.9348,  3.0448
2019/09/12 14:01:53.137, -2.6022, -1.9348,  3.0448
2019/09/12 14:01:53.139, -2.6022, -1.9348,  3.0448
2019/09/12 14:01:53.142, -2.6022, -1.9348,  3.0448
2019/09/12 14:01:53.144, -2.6022, -1.9348,  3.0448
2019/09/12 14:01:53.146, -1.9186,  1.8160,  4.1558
2019/09/12 14:01:53.148, -1.9186,  1.8160,  4.1558
2019/09/12 14:01:53.150, -1.9186,  1.8160,  4.1558
2019/09/12 14:01:53.152, -1.9186,  1.8160,  4.1558
2019/09/12 14:01:53.153, -1.9186,  1.8160,  4.1558
2019/09/12 14:01:53.155, -1.9186,  1.8160,  4.1558
2019/09/12 14:01:53.157, -1.9186,  1.8160,  4.1558
2019/09/12 14:01:53.159, -1.9186,  1.8160,  4.1558
2019/09/12 14:01:53.162, -1.9186,  1.8160,  4.1558
2019/09/12 14:01:53.164, -1.9186,  1.8160,  4.1558
2019/09/12 14:01:53.166, -3.2775,  2.3213,  1.2043
2019/09/12 14:01:53.169, -3.2775,  2.3213,  1.2043
2019/09/12 14:01:53.171, -3.2775,  2.3213,  1.2043
2019/09/12 14:01:53.173, -3.2775,  2.3213,  1.2043
2019/09/12 14:01:53.175, -3.2775,  2.3213,  1.2043
2019/09/12 14:01:53.176, -3.2775,  2.3213,  1.2043
2019/09/12 14:01:53.178, -3.2775,  2.3213,  1.2043
2019/09/12 14:01:53.180, -3.2775,  2.3213,  1.2043
2019/09/12 14:01:53.183, -3.2775,  2.3213,  1.2043
2019/09/12 14:01:53.185, -3.2775,  2.3213,  1.2043
2019/09/12 14:01:53.187, -4.1669,  2.9540,  0.3420
2019/09/12 14:01:53.190, -4.1669,  2.9540,  0.3420
2019/09/12 14:01:53.192, -4.1669,  2.9540,  0.3420
2019/09/12 14:01:53.194, -4.1669,  2.9540,  0.3420
2019/09/12 14:01:53.197, -4.1669,  2.9540,  0.3420
2019/09/12 14:01:53.199, -4.1669,  2.9540,  0.3420
2019/09/12 14:01:53.202, -4.1669,  2.9540,  0.3420
2019/09/12 14:01:53.204, -4.1669,  2.9540,  0.3420
2019/09/12 14:01:53.206, -1.4558,  0.5083,  2.3459
2019/09/12 14:01:53.209, -1.4558,  0.5083,  2.3459
2019/09/12 14:01:53.213, -1.4558,  0.5083,  2.3459
2019/09/12 14:01:53.215, -1.4558,  0.5083,  2.3459
2019/09/12 14:01:53.219, -1.4558,  0.5083,  2.3459
2019/09/12 14:01:53.222, -1.4558,  0.5083,  2.3459
2019/09/12 14:01:53.224, -1.4558,  0.5083,  2.3459
2019/09/12 14:01:53.226, -0.1560, -0.6695,  1.7837
2019/09/12 14:01:53.228, -0.1560, -0.6695,  1.7837
2019/09/12 14:01:53.230, -0.1560, -0.6695,  1.7837
2019/09/12 14:01:53.232, -0.1560, -0.6695,  1.7837
2019/09/12 14:01:53.234, -0.1560, -0.6695,  1.7837
2019/09/12 14:01:53.235, -0.1560, -0.6695,  1.7837
2019/09/12 14:01:53.236, -0.1560, -0.6695,  1.7837
2019/09/12 14:01:53.238, -0.1560, -0.6695,  1.7837
2019/09/12 14:01:53.239, -0.1560, -0.6695,  1.7837
2019/09/12 14:01:53.241, -0.1560, -0.6695,  1.7837
2019/09/12 14:01:53.243, -0.1560, -0.6695,  1.7837
2019/09/12 14:01:53.245, -1.0138,  0.5236,  0.8762
2019/09/12 14:01:53.246, -1.0138,  0.5236,  0.8762
2019/09/12 14:01:53.248, -1.0138,  0.5236,  0.8762
2019/09/12 14:01:53.251, -1.0138,  0.5236,  0.8762
2019/09/12 14:01:53.253, -1.0138,  0.5236,  0.8762
2019/09/12 14:01:53.254, -1.0138,  0.5236,  0.8762
2019/09/12 14:01:53.256, -1.0138,  0.5236,  0.8762
2019/09/12 14:01:53.258, -1.0138,  0.5236,  0.8762
2019/09/12 14:01:53.260, -1.0138,  0.5236,  0.8762
2019/09/12 14:01:53.262, -1.0138,  0.5236,  0.8762
2019/09/12 14:01:53.264, -1.0138,  0.5236,  0.8762
2019/09/12 14:01:53.266, -1.3075,  1.2033,  0.1044
2019/09/12 14:01:53.271, -1.3075,  1.2033,  0.1044
2019/09/12 14:01:53.272, -1.3075,  1.2033,  0.1044
2019/09/12 14:01:53.275, -1.3075,  1.2033,  0.1044
2019/09/12 14:01:53.277, -1.3075,  1.2033,  0.1044
2019/09/12 14:01:53.279, -1.3075,  1.2033,  0.1044
2019/09/12 14:01:53.282, -1.3075,  1.2033,  0.1044
2019/09/12 14:01:53.284, -1.3075,  1.2033,  0.1044
2019/09/12 14:01:53.286, -0.4789,  1.8159, -0.5988
2019/09/12 14:01:53.288, -0.4789,  1.8159, -0.5988
2019/09/12 14:01:53.291, -0.4789,  1.8159, -0.5988
2019/09/12 14:01:53.293, -0.4789,  1.8159, -0.5988
2019/09/12 14:01:53.296, -0.4789,  1.8159, -0.5988
2019/09/12 14:01:53.299, -0.4789,  1.8159, -0.5988
2019/09/12 14:01:53.301, -0.4789,  1.8159, -0.5988
2019/09/12 14:01:53.303, -0.4789,  1.8159, -0.5988
2019/09/12 14:01:53.305, -0.3030,  1.4669, -1.1897
2019/09/12 14:01:53.306, -0.3030,  1.4669, -1.1897
2019/09/12 14:01:53.308, -0.3030,  1.4669, -1.1897
2019/09/12 14:01:53.311, -0.3030,  1.4669, -1.1897
2019/09/12 14:01:53.313, -0.3030,  1.4669, -1.1897
2019/09/12 14:01:53.315, -0.3030,  1.4669, -1.1897
2019/09/12 14:01:53.317, -0.3030,  1.4669, -1.1897
2019/09/12 14:01:53.319, -0.3030,  1.4669, -1.1897
2019/09/12 14:01:53.321, -0.3030,  1.4669, -1.1897
2019/09/12 14:01:53.322, -0.3030,  1.4669, -1.1897
2019/09/12 14:01:53.328,  0.1601,  0.3115, -1.9556
2019/09/12 14:01:53.330,  0.1601,  0.3115, -1.9556
2019/09/12 14:01:53.332,  0.1601,  0.3115, -1.9556
2019/09/12 14:01:53.334,  0.1601,  0.3115, -1.9556
2019/09/12 14:01:53.336,  0.1601,  0.3115, -1.9556
2019/09/12 14:01:53.338,  0.1601,  0.3115, -1.9556
2019/09/12 14:01:53.340,  0.1601,  0.3115, -1.9556
2019/09/12 14:01:53.341,  0.1601,  0.3115, -1.9556
2019/09/12 14:01:53.343,  0.1601,  0.3115, -1.9556
2019/09/12 14:01:53.345, -0.3031, -0.4031, -2.7155
2019/09/12 14:01:53.347, -0.3031, -0.4031, -2.7155
2019/09/12 14:01:53.349, -0.3031, -0.4031, -2.7155
2019/09/12 14:01:53.351, -0.3031, -0.4031, -2.7155
2019/09/12 14:01:53.353, -0.3031, -0.4031, -2.7155
2019/09/12 14:01:53.355, -0.3031, -0.4031, -2.7155
2019/09/12 14:01:53.360, -0.3031, -0.4031, -2.7155
2019/09/12 14:01:53.361, -0.3031, -0.4031, -2.7155
2019/09/12 14:01:53.363, -0.3031, -0.4031, -2.7155
2019/09/12 14:01:53.366, -0.2998, -0.4858, -3.2521
2019/09/12 14:01:53.368, -0.2998, -0.4858, -3.2521
2019/09/12 14:01:53.370, -0.2998, -0.4858, -3.2521
2019/09/12 14:01:53.373, -0.2998, -0.4858, -3.2521
2019/09/12 14:01:53.375, -0.2998, -0.4858, -3.2521
2019/09/12 14:01:53.377, -0.2998, -0.4858, -3.2521
2019/09/12 14:01:53.379, -0.2998, -0.4858, -3.2521
2019/09/12 14:01:53.381, -0.2998, -0.4858, -3.2521
2019/09/12 14:01:53.383, -0.2998, -0.4858, -3.2521
2019/09/12 14:01:53.387,  0.5844, -1.4536, -2.2656
2019/09/12 14:01:53.389,  0.5844, -1.4536, -2.2656
2019/09/12 14:01:53.391,  0.5844, -1.4536, -2.2656
2019/09/12 14:01:53.393,  0.5844, -1.4536, -2.2656
2019/09/12 14:01:53.395,  0.5844, -1.4536, -2.2656
2019/09/12 14:01:53.396,  0.5844, -1.4536, -2.2656
2019/09/12 14:01:53.398,  0.5844, -1.4536, -2.2656
2019/09/12 14:01:53.400,  0.5844, -1.4536, -2.2656
2019/09/12 14:01:53.401,  0.5844, -1.4536, -2.2656
2019/09/12 14:01:53.403,  0.5844, -1.4536, -2.2656
2019/09/12 14:01:53.404,  0.2930, -1.2958, -0.8133
2019/09/12 14:01:53.406,  0.2930, -1.2958, -0.8133
2019/09/12 14:01:53.408,  0.2930, -1.2958, -0.8133
2019/09/12 14:01:53.410,  0.2930, -1.2958, -0.8133
2019/09/12 14:01:53.414,  0.2930, -1.2958, -0.8133
2019/09/12 14:01:53.416,  0.2930, -1.2958, -0.8133
2019/09/12 14:01:53.418,  0.2930, -1.2958, -0.8133
2019/09/12 14:01:53.420,  0.2930, -1.2958, -0.8133
2019/09/12 14:01:53.422,  0.2930, -1.2958, -0.8133
2019/09/12 14:01:53.423,  0.2930, -1.2958, -0.8133
2019/09/12 14:01:53.425, -0.3180,  0.9009, -0.6569
2019/09/12 14:01:53.431, -0.3180,  0.9009, -0.6569
2019/09/12 14:01:53.433, -0.3180,  0.9009, -0.6569
2019/09/12 14:01:53.435, -0.3180,  0.9009, -0.6569
2019/09/12 14:01:53.436, -0.3180,  0.9009, -0.6569
2019/09/12 14:01:53.438, -0.3180,  0.9009, -0.6569
2019/09/12 14:01:53.441, -0.3180,  0.9009, -0.6569
2019/09/12 14:01:53.443, -0.3180,  0.9009, -0.6569
2019/09/12 14:01:53.445, -0.7270, -0.4378,  0.1723
2019/09/12 14:01:53.447, -0.7270, -0.4378,  0.1723
2019/09/12 14:01:53.450, -0.7270, -0.4378,  0.1723
2019/09/12 14:01:53.452, -0.7270, -0.4378,  0.1723
2019/09/12 14:01:53.454, -0.7270, -0.4378,  0.1723
2019/09/12 14:01:53.457, -0.7270, -0.4378,  0.1723
2019/09/12 14:01:53.459, -0.7270, -0.4378,  0.1723
2019/09/12 14:01:53.461, -0.7270, -0.4378,  0.1723
2019/09/12 14:01:53.463, -0.7270, -0.4378,  0.1723
2019/09/12 14:01:53.465,  0.5408, -0.4580,  1.4549
2019/09/12 14:01:53.468,  0.5408, -0.4580,  1.4549
2019/09/12 14:01:53.470,  0.5408, -0.4580,  1.4549
2019/09/12 14:01:53.472,  0.5408, -0.4580,  1.4549
2019/09/12 14:01:53.474,  0.5408, -0.4580,  1.4549
2019/09/12 14:01:53.476,  0.5408, -0.4580,  1.4549
2019/09/12 14:01:53.478,  0.5408, -0.4580,  1.4549
2019/09/12 14:01:53.481,  0.5408, -0.4580,  1.4549
2019/09/12 14:01:53.486,  0.5408, -0.4580,  1.4549
2019/09/12 14:01:53.490,  0.2020, -0.2337,  1.7468
2019/09/12 14:01:53.492,  0.2020, -0.2337,  1.7468
2019/09/12 14:01:53.494,  0.2020, -0.2337,  1.7468
2019/09/12 14:01:53.495,  0.2020, -0.2337,  1.7468
2019/09/12 14:01:53.497,  0.2020, -0.2337,  1.7468
2019/09/12 14:01:53.502,  0.2020, -0.2337,  1.7468
2019/09/12 14:01:53.507,  0.2020, -0.2337,  1.7468
2019/09/12 14:01:53.509,  0.1680,  0.2906,  1.1725
2019/09/12 14:01:53.510,  0.1680,  0.2906,  1.1725
2019/09/12 14:01:53.512,  0.1680,  0.2906,  1.1725
2019/09/12 14:01:53.516,  0.1680,  0.2906,  1.1725
2019/09/12 14:01:53.518,  0.1680,  0.2906,  1.1725
2019/09/12 14:01:53.520,  0.1680,  0.2906,  1.1725
2019/09/12 14:01:53.522,  0.1680,  0.2906,  1.1725
2019/09/12 14:01:53.524,  0.1680,  0.2906,  1.1725
2019/09/12 14:01:53.526,  0.5345,  0.3005, -0.2004
2019/09/12 14:01:53.528,  0.5345,  0.3005, -0.2004
2019/09/12 14:01:53.531,  0.5345,  0.3005, -0.2004
2019/09/12 14:01:53.532,  0.5345,  0.3005, -0.2004
2019/09/12 14:01:53.534,  0.5345,  0.3005, -0.2004
2019/09/12 14:01:53.536,  0.5345,  0.3005, -0.2004
2019/09/12 14:01:53.538,  0.5345,  0.3005, -0.2004
2019/09/12 14:01:53.540,  0.5345,  0.3005, -0.2004
2019/09/12 14:01:53.543,  0.5345,  0.3005, -0.2004
2019/09/12 14:01:53.545,  0.5345,  0.3005, -0.2004
2019/09/12 14:01:53.548,  0.0726,  0.6487, -0.6376
2019/09/12 14:01:53.550,  0.0726,  0.6487, -0.6376
2019/09/12 14:01:53.551,  0.0726,  0.6487, -0.6376
2019/09/12 14:01:53.555,  0.0726,  0.6487, -0.6376
2019/09/12 14:01:53.556,  0.0726,  0.6487, -0.6376
2019/09/12 14:01:53.558,  0.0726,  0.6487, -0.6376
2019/09/12 14:01:53.560,  0.0726,  0.6487, -0.6376
2019/09/12 14:01:53.562,  0.0726,  0.6487, -0.6376
2019/09/12 14:01:53.563,  0.0726,  0.6487, -0.6376
2019/09/12 14:01:53.566,  0.8498,  0.4652, -0.8344
2019/09/12 14:01:53.567,  0.8498,  0.4652, -0.8344
2019/09/12 14:01:53.570,  0.8498,  0.4652, -0.8344
2019/09/12 14:01:53.572,  0.8498,  0.4652, -0.8344
2019/09/12 14:01:53.575,  0.8498,  0.4652, -0.8344
2019/09/12 14:01:53.577,  0.8498,  0.4652, -0.8344
2019/09/12 14:01:53.579,  0.8498,  0.4652, -0.8344
2019/09/12 14:01:53.580,  0.8498,  0.4652, -0.8344
2019/09/12 14:01:53.584,  0.8498,  0.4652, -0.8344
2019/09/12 14:01:53.586,  0.9581,  0.9996, -0.3841
2019/09/12 14:01:53.587,  0.9581,  0.9996, -0.3841
2019/09/12 14:01:53.589,  0.9581,  0.9996, -0.3841
2019/09/12 14:01:53.596,  0.9581,  0.9996, -0.3841
2019/09/12 14:01:53.599,  0.9581,  0.9996, -0.3841
2019/09/12 14:01:53.601,  0.9581,  0.9996, -0.3841
2019/09/12 14:01:53.603,  0.9581,  0.9996, -0.3841
2019/09/12 14:01:53.605,  0.0147,  2.7747,  1.3654
2019/09/12 14:01:53.606,  0.0147,  2.7747,  1.3654
2019/09/12 14:01:53.610,  0.0147,  2.7747,  1.3654
2019/09/12 14:01:53.611,  0.0147,  2.7747,  1.3654
2019/09/12 14:01:53.613,  0.0147,  2.7747,  1.3654
2019/09/12 14:01:53.614,  0.0147,  2.7747,  1.3654
2019/09/12 14:01:53.616,  0.0147,  2.7747,  1.3654
2019/09/12 14:01:53.618,  0.0147,  2.7747,  1.3654
2019/09/12 14:01:53.619,  0.0147,  2.7747,  1.3654
2019/09/12 14:01:53.621,  0.0147,  2.7747,  1.3654
2019/09/12 14:01:53.622,  0.0147,  2.7747,  1.3654
2019/09/12 14:01:53.626,  0.0147,  2.7747,  1.3654
2019/09/12 14:01:53.628, -0.1436, -0.4858,  0.3050
2019/09/12 14:01:53.629, -0.1436, -0.4858,  0.3050
2019/09/12 14:01:53.631, -0.1436, -0.4858,  0.3050
2019/09/12 14:01:53.633, -0.1436, -0.4858,  0.3050
2019/09/12 14:01:53.635, -0.1436, -0.4858,  0.3050
2019/09/12 14:01:53.638, -0.1436, -0.4858,  0.3050
2019/09/12 14:01:53.639, -0.1436, -0.4858,  0.3050
2019/09/12 14:01:53.641, -0.1436, -0.4858,  0.3050
2019/09/12 14:01:53.642, -0.1436, -0.4858,  0.3050
2019/09/12 14:01:53.644, -0.1436, -0.4858,  0.3050
2019/09/12 14:01:53.646,  0.3333,  1.8680,  0.4871
2019/09/12 14:01:53.647,  0.3333,  1.8680,  0.4871
2019/09/12 14:01:53.651,  0.3333,  1.8680,  0.4871
2019/09/12 14:01:53.653,  0.3333,  1.8680,  0.4871
2019/09/12 14:01:53.654,  0.3333,  1.8680,  0.4871
2019/09/12 14:01:53.656,  0.3333,  1.8680,  0.4871
2019/09/12 14:01:53.658,  0.3333,  1.8680,  0.4871
2019/09/12 14:01:53.659,  0.3333,  1.8680,  0.4871
2019/09/12 14:01:53.661,  0.3333,  1.8680,  0.4871
2019/09/12 14:01:53.662,  0.3333,  1.8680,  0.4871
2019/09/12 14:01:53.663,  0.3333,  1.8680,  0.4871
2019/09/12 14:01:53.665,  0.7802,  1.3051,  0.4343
2019/09/12 14:01:53.668,  0.7802,  1.3051,  0.4343
2019/09/12 14:01:53.671,  0.7802,  1.3051,  0.4343
2019/09/12 14:01:53.675,  0.7802,  1.3051,  0.4343
2019/09/12 14:01:53.677,  0.7802,  1.3051,  0.4343
2019/09/12 14:01:53.678,  0.7802,  1.3051,  0.4343
2019/09/12 14:01:53.679,  0.7802,  1.3051,  0.4343
2019/09/12 14:01:53.681,  0.7802,  1.3051,  0.4343
2019/09/12 14:01:53.682,  0.7802,  1.3051,  0.4343
2019/09/12 14:01:53.684,  0.7802,  1.3051,  0.4343
2019/09/12 14:01:53.687,  0.8240,  1.1842,  0.1917
2019/09/12 14:01:53.689,  0.8240,  1.1842,  0.1917
2019/09/12 14:01:53.690,  0.8240,  1.1842,  0.1917
2019/09/12 14:01:53.694,  0.8240,  1.1842,  0.1917
2019/09/12 14:01:53.696,  0.8240,  1.1842,  0.1917
2019/09/12 14:01:53.699,  0.8240,  1.1842,  0.1917
2019/09/12 14:01:53.700,  0.8240,  1.1842,  0.1917
2019/09/12 14:01:53.702,  0.8240,  1.1842,  0.1917
2019/09/12 14:01:53.703,  0.8240,  1.1842,  0.1917
2019/09/12 14:01:53.706,  1.1030,  0.4988, -0.0299
2019/09/12 14:01:53.707,  1.1030,  0.4988, -0.0299
2019/09/12 14:01:53.709,  1.1030,  0.4988, -0.0299
2019/09/12 14:01:53.710,  1.1030,  0.4988, -0.0299
2019/09/12 14:01:53.712,  1.1030,  0.4988, -0.0299
2019/09/12 14:01:53.713,  1.1030,  0.4988, -0.0299
2019/09/12 14:01:53.714,  1.1030,  0.4988, -0.0299
2019/09/12 14:01:53.716,  1.1030,  0.4988, -0.0299
2019/09/12 14:01:53.717,  1.1030,  0.4988, -0.0299
2019/09/12 14:01:53.718,  1.1030,  0.4988, -0.0299
2019/09/12 14:01:53.723,  1.1030,  0.4988, -0.0299
2019/09/12 14:01:53.725,  1.8627,  0.4401, -0.3043
2019/09/12 14:01:53.726,  1.8627,  0.4401, -0.3043
2019/09/12 14:01:53.728,  1.8627,  0.4401, -0.3043
2019/09/12 14:01:53.729,  1.8627,  0.4401, -0.3043
2019/09/12 14:01:53.731,  1.8627,  0.4401, -0.3043
2019/09/12 14:01:53.732,  1.8627,  0.4401, -0.3043
2019/09/12 14:01:53.733,  1.8627,  0.4401, -0.3043
2019/09/12 14:01:53.735,  1.8627,  0.4401, -0.3043
2019/09/12 14:01:53.739,  1.8627,  0.4401, -0.3043
2019/09/12 14:01:53.741,  1.8627,  0.4401, -0.3043
2019/09/12 14:01:53.743,  1.8627,  0.4401, -0.3043
2019/09/12 14:01:53.744,  1.8627,  0.4401, -0.3043
2019/09/12 14:01:53.745,  0.6285,  1.1469, -0.4946
2019/09/12 14:01:53.747,  0.6285,  1.1469, -0.4946
2019/09/12 14:01:53.748,  0.6285,  1.1469, -0.4946
2019/09/12 14:01:53.752,  0.6285,  1.1469, -0.4946
2019/09/12 14:01:53.754,  0.6285,  1.1469, -0.4946
2019/09/12 14:01:53.755,  0.6285,  1.1469, -0.4946
2019/09/12 14:01:53.758,  0.6285,  1.1469, -0.4946
2019/09/12 14:01:53.760,  0.6285,  1.1469, -0.4946
2019/09/12 14:01:53.761,  0.6285,  1.1469, -0.4946
2019/09/12 14:01:53.764,  0.6285,  1.1469, -0.4946
2019/09/12 14:01:53.766,  0.3656,  0.8424,  0.0319
2019/09/12 14:01:53.767,  0.3656,  0.8424,  0.0319
2019/09/12 14:01:53.769,  0.3656,  0.8424,  0.0319
2019/09/12 14:01:53.772,  0.3656,  0.8424,  0.0319
2019/09/12 14:01:53.773,  0.3656,  0.8424,  0.0319
2019/09/12 14:01:53.774,  0.3656,  0.8424,  0.0319
2019/09/12 14:01:53.775,  0.3656,  0.8424,  0.0319
2019/09/12 14:01:53.781,  0.3656,  0.8424,  0.0319
2019/09/12 14:01:53.782,  0.3656,  0.8424,  0.0319
2019/09/12 14:01:53.783,  0.3656,  0.8424,  0.0319
2019/09/12 14:01:53.785, -0.1342,  0.2499,  0.2556
2019/09/12 14:01:53.786, -0.1342,  0.2499,  0.2556
2019/09/12 14:01:53.788, -0.1342,  0.2499,  0.2556
2019/09/12 14:01:53.792, -0.1342,  0.2499,  0.2556
2019/09/12 14:01:53.793, -0.1342,  0.2499,  0.2556
2019/09/12 14:01:53.794, -0.1342,  0.2499,  0.2556
2019/09/12 14:01:53.795, -0.1342,  0.2499,  0.2556
2019/09/12 14:01:53.799, -0.1342,  0.2499,  0.2556
2019/09/12 14:01:53.801, -0.1342,  0.2499,  0.2556
2019/09/12 14:01:53.802, -0.1342,  0.2499,  0.2556
2019/09/12 14:01:53.805, -0.1342,  0.2499,  0.2556
2019/09/12 14:01:53.806, -1.4302, -0.0612,  1.4544
2019/09/12 14:01:53.808, -1.4302, -0.0612,  1.4544
2019/09/12 14:01:53.809, -1.4302, -0.0612,  1.4544
2019/09/12 14:01:53.811, -1.4302, -0.0612,  1.4544
2019/09/12 14:01:53.812, -1.4302, -0.0612,  1.4544
2019/09/12 14:01:53.813, -1.4302, -0.0612,  1.4544
2019/09/12 14:01:53.814, -1.4302, -0.0612,  1.4544
2019/09/12 14:01:53.816, -1.4302, -0.0612,  1.4544
2019/09/12 14:01:53.817, -1.4302, -0.0612,  1.4544
2019/09/12 14:01:53.819, -1.4302, -0.0612,  1.4544
2019/09/12 14:01:53.820, -1.4302, -0.0612,  1.4544
2019/09/12 14:01:53.821, -1.4302, -0.0612,  1.4544
2019/09/12 14:01:53.823, -1.4302, -0.0612,  1.4544
2019/09/12 14:01:53.824, -1.4302, -0.0612,  1.4544
2019/09/12 14:01:53.825, -2.6240, -0.5053,  2.9409
2019/09/12 14:01:53.827, -2.6240, -0.5053,  2.9409
2019/09/12 14:01:53.828, -2.6240, -0.5053,  2.9409
2019/09/12 14:01:53.830, -2.6240, -0.5053,  2.9409
2019/09/12 14:01:53.831, -2.6240, -0.5053,  2.9409
2019/09/12 14:01:53.833, -2.6240, -0.5053,  2.9409
2019/09/12 14:01:53.834, -2.6240, -0.5053,  2.9409
2019/09/12 14:01:53.835, -2.6240, -0.5053,  2.9409
2019/09/12 14:01:53.837, -2.6240, -0.5053,  2.9409
2019/09/12 14:01:53.838, -2.6240, -0.5053,  2.9409
2019/09/12 14:01:53.840, -2.6240, -0.5053,  2.9409
2019/09/12 14:01:53.841, -2.6240, -0.5053,  2.9409
2019/09/12 14:01:53.845, -2.6240, -0.5053,  2.9409
2019/09/12 14:01:53.846, -1.3797, -1.3333,  3.8360
2019/09/12 14:01:53.850, -1.3797, -1.3333,  3.8360
2019/09/12 14:01:53.852, -1.3797, -1.3333,  3.8360
2019/09/12 14:01:53.854, -1.3797, -1.3333,  3.8360
2019/09/12 14:01:53.857, -1.3797, -1.3333,  3.8360
2019/09/12 14:01:53.859, -1.3797, -1.3333,  3.8360
2019/09/12 14:01:53.860, -1.3797, -1.3333,  3.8360
2019/09/12 14:01:53.861, -1.3797, -1.3333,  3.8360
2019/09/12 14:01:53.863, -1.3797, -1.3333,  3.8360
2019/09/12 14:01:53.865,  0.1352, -1.6817,  3.1646
2019/09/12 14:01:53.866,  0.1352, -1.6817,  3.1646
2019/09/12 14:01:53.867,  0.1352, -1.6817,  3.1646
2019/09/12 14:01:53.869,  0.1352, -1.6817,  3.1646
2019/09/12 14:01:53.870,  0.1352, -1.6817,  3.1646
2019/09/12 14:01:53.872,  0.1352, -1.6817,  3.1646
2019/09/12 14:01:53.873,  0.1352, -1.6817,  3.1646
2019/09/12 14:01:53.874,  0.1352, -1.6817,  3.1646
2019/09/12 14:01:53.876,  0.1352, -1.6817,  3.1646
2019/09/12 14:01:53.878,  0.1352, -1.6817,  3.1646
2019/09/12 14:01:53.879,  0.1352, -1.6817,  3.1646
2019/09/12 14:01:53.881,  0.1352, -1.6817,  3.1646
2019/09/12 14:01:53.882,  0.1352, -1.6817,  3.1646
2019/09/12 14:01:53.884,  0.1352, -1.6817,  3.1646
2019/09/12 14:01:53.886,  0.8902, -1.7646,  2.1262
2019/09/12 14:01:53.887,  0.8902, -1.7646,  2.1262
2019/09/12 14:01:53.889,  0.8902, -1.7646,  2.1262
2019/09/12 14:01:53.890,  0.8902, -1.7646,  2.1262
2019/09/12 14:01:53.892,  0.8902, -1.7646,  2.1262
2019/09/12 14:01:53.893,  0.8902, -1.7646,  2.1262
2019/09/12 14:01:53.895,  0.8902, -1.7646,  2.1262
2019/09/12 14:01:53.897,  0.8902, -1.7646,  2.1262
2019/09/12 14:01:53.899,  0.8902, -1.7646,  2.1262
2019/09/12 14:01:53.900,  0.8902, -1.7646,  2.1262
2019/09/12 14:01:53.905,  0.8902, -1.7646,  2.1262
2019/09/12 14:01:53.907,  0.6589, -1.4515,  1.6700
2019/09/12 14:01:53.909,  0.6589, -1.4515,  1.6700
2019/09/12 14:01:53.911,  0.6589, -1.4515,  1.6700
2019/09/12 14:01:53.913,  0.6589, -1.4515,  1.6700
2019/09/12 14:01:53.914,  0.6589, -1.4515,  1.6700
2019/09/12 14:01:53.916,  0.6589, -1.4515,  1.6700
2019/09/12 14:01:53.917,  0.6589, -1.4515,  1.6700
2019/09/12 14:01:53.919,  0.6589, -1.4515,  1.6700
2019/09/12 14:01:53.921,  0.6589, -1.4515,  1.6700
2019/09/12 14:01:53.922,  0.6589, -1.4515,  1.6700
2019/09/12 14:01:53.924,  0.6589, -1.4515,  1.6700
2019/09/12 14:01:53.925,  0.0530, -1.1312,  0.8624
2019/09/12 14:01:53.927,  0.0530, -1.1312,  0.8624
2019/09/12 14:01:53.928,  0.0530, -1.1312,  0.8624
2019/09/12 14:01:53.930,  0.0530, -1.1312,  0.8624
2019/09/12 14:01:53.932,  0.0530, -1.1312,  0.8624
2019/09/12 14:01:53.933,  0.0530, -1.1312,  0.8624
2019/09/12 14:01:53.935,  0.0530, -1.1312,  0.8624
2019/09/12 14:01:53.936,  0.0530, -1.1312,  0.8624
2019/09/12 14:01:53.938,  0.0530, -1.1312,  0.8624
2019/09/12 14:01:53.939,  0.0530, -1.1312,  0.8624
2019/09/12 14:01:53.940,  0.0530, -1.1312,  0.8624
2019/09/12 14:01:53.942,  0.0530, -1.1312,  0.8624
2019/09/12 14:01:53.943,  0.0530, -1.1312,  0.8624
2019/09/12 14:01:53.945, -0.2538, -0.9733,  0.3670
2019/09/12 14:01:53.947, -0.2538, -0.9733,  0.3670
2019/09/12 14:01:53.948, -0.2538, -0.9733,  0.3670
2019/09/12 14:01:53.949, -0.2538, -0.9733,  0.3670
2019/09/12 14:01:53.951, -0.2538, -0.9733,  0.3670
2019/09/12 14:01:53.952, -0.2538, -0.9733,  0.3670
2019/09/12 14:01:53.954, -0.2538, -0.9733,  0.3670
2019/09/12 14:01:53.956, -0.2538, -0.9733,  0.3670
2019/09/12 14:01:53.957, -0.2538, -0.9733,  0.3670
2019/09/12 14:01:53.959, -0.2538, -0.9733,  0.3670
2019/09/12 14:01:53.961, -0.2538, -0.9733,  0.3670
2019/09/12 14:01:53.963, -0.2538, -0.9733,  0.3670
2019/09/12 14:01:53.964, -0.2538, -0.9733,  0.3670
2019/09/12 14:01:53.966, -0.2263, -0.6574,  0.0077
2019/09/12 14:01:53.967, -0.2263, -0.6574,  0.0077
2019/09/12 14:01:53.969, -0.2263, -0.6574,  0.0077
2019/09/12 14:01:53.970, -0.2263, -0.6574,  0.0077
2019/09/12 14:01:53.972, -0.2263, -0.6574,  0.0077
2019/09/12 14:01:53.973, -0.2263, -0.6574,  0.0077
2019/09/12 14:01:53.975, -0.2263, -0.6574,  0.0077
2019/09/12 14:01:53.977, -0.2263, -0.6574,  0.0077
2019/09/12 14:01:53.981, -0.2263, -0.6574,  0.0077
2019/09/12 14:01:53.982, -0.2263, -0.6574,  0.0077
2019/09/12 14:01:53.984, -0.2263, -0.6574,  0.0077
2019/09/12 14:01:53.986,  0.1077, -0.3430, -1.0179
2019/09/12 14:01:53.989,  0.1077, -0.3430, -1.0179
2019/09/12 14:01:53.991,  0.1077, -0.3430, -1.0179
2019/09/12 14:01:53.992,  0.1077, -0.3430, -1.0179
2019/09/12 14:01:53.994,  0.1077, -0.3430, -1.0179
2019/09/12 14:01:53.995,  0.1077, -0.3430, -1.0179
2019/09/12 14:01:53.997,  0.1077, -0.3430, -1.0179
2019/09/12 14:01:53.998,  0.1077, -0.3430, -1.0179
2019/09/12 14:01:54.000,  0.1077, -0.3430, -1.0179
2019/09/12 14:01:54.001,  0.1077, -0.3430, -1.0179
2019/09/12 14:01:54.003,  0.1077, -0.3430, -1.0179
2019/09/12 14:01:54.004,  0.1892, -0.0090, -1.5100
2019/09/12 14:01:54.006,  0.1892, -0.0090, -1.5100
2019/09/12 14:01:54.007,  0.1892, -0.0090, -1.5100
2019/09/12 14:01:54.009,  0.1892, -0.0090, -1.5100
2019/09/12 14:01:54.013,  0.1892, -0.0090, -1.5100
2019/09/12 14:01:54.014,  0.1892, -0.0090, -1.5100
2019/09/12 14:01:54.018,  0.1892, -0.0090, -1.5100
2019/09/12 14:01:54.020,  0.1892, -0.0090, -1.5100
2019/09/12 14:01:54.022,  0.1892, -0.0090, -1.5100
2019/09/12 14:01:54.023,  0.1892, -0.0090, -1.5100
2019/09/12 14:01:54.025,  0.2836, -0.2684, -1.2634
2019/09/12 14:01:54.026,  0.2836, -0.2684, -1.2634
2019/09/12 14:01:54.028,  0.2836, -0.2684, -1.2634
2019/09/12 14:01:54.029,  0.2836, -0.2684, -1.2634
2019/09/12 14:01:54.031,  0.2836, -0.2684, -1.2634
2019/09/12 14:01:54.032,  0.2836, -0.2684, -1.2634
2019/09/12 14:01:54.033,  0.2836, -0.2684, -1.2634
2019/09/12 14:01:54.035,  0.2836, -0.2684, -1.2634
2019/09/12 14:01:54.036,  0.2836, -0.2684, -1.2634
2019/09/12 14:01:54.038,  0.2836, -0.2684, -1.2634
2019/09/12 14:01:54.039,  0.2836, -0.2684, -1.2634
2019/09/12 14:01:54.041,  0.2836, -0.2684, -1.2634
2019/09/12 14:01:54.042,  0.2836, -0.2684, -1.2634
2019/09/12 14:01:54.044,  0.2836, -0.2684, -1.2634
2019/09/12 14:01:54.045,  0.6297, -0.6121, -0.2489
2019/09/12 14:01:54.046,  0.6297, -0.6121, -0.2489
2019/09/12 14:01:54.048,  0.6297, -0.6121, -0.2489
2019/09/12 14:01:54.051,  0.6297, -0.6121, -0.2489
2019/09/12 14:01:54.052,  0.6297, -0.6121, -0.2489
2019/09/12 14:01:54.054,  0.6297, -0.6121, -0.2489
2019/09/12 14:01:54.055,  0.6297, -0.6121, -0.2489
2019/09/12 14:01:54.057,  0.6297, -0.6121, -0.2489
2019/09/12 14:01:54.058,  0.6297, -0.6121, -0.2489
2019/09/12 14:01:54.060,  0.6297, -0.6121, -0.2489
2019/09/12 14:01:54.062,  0.6297, -0.6121, -0.2489
2019/09/12 14:01:54.063,  0.6297, -0.6121, -0.2489
2019/09/12 14:01:54.065,  0.3780, -0.4886,  0.6402
2019/09/12 14:01:54.067,  0.3780, -0.4886,  0.6402
2019/09/12 14:01:54.069,  0.3780, -0.4886,  0.6402
2019/09/12 14:01:54.070,  0.3780, -0.4886,  0.6402
2019/09/12 14:01:54.072,  0.3780, -0.4886,  0.6402
2019/09/12 14:01:54.074,  0.3780, -0.4886,  0.6402
2019/09/12 14:01:54.075,  0.3780, -0.4886,  0.6402
2019/09/12 14:01:54.077,  0.3780, -0.4886,  0.6402
2019/09/12 14:01:54.078,  0.3780, -0.4886,  0.6402
2019/09/12 14:01:54.080,  0.3780, -0.4886,  0.6402
2019/09/12 14:01:54.081,  0.3780, -0.4886,  0.6402
2019/09/12 14:01:54.083,  0.3780, -0.4886,  0.6402
2019/09/12 14:01:54.084,  0.3780, -0.4886,  0.6402
2019/09/12 14:01:54.086,  0.2323, -0.1967,  0.9654
2019/09/12 14:01:54.087,  0.2323, -0.1967,  0.9654
2019/09/12 14:01:54.089,  0.2323, -0.1967,  0.9654
2019/09/12 14:01:54.090,  0.2323, -0.1967,  0.9654
2019/09/12 14:01:54.092,  0.2323, -0.1967,  0.9654
2019/09/12 14:01:54.094,  0.2323, -0.1967,  0.9654
2019/09/12 14:01:54.095,  0.2323, -0.1967,  0.9654
2019/09/12 14:01:54.096,  0.2323, -0.1967,  0.9654
2019/09/12 14:01:54.097,  0.2323, -0.1967,  0.9654
2019/09/12 14:01:54.099,  0.2323, -0.1967,  0.9654
2019/09/12 14:01:54.100,  0.2323, -0.1967,  0.9654
2019/09/12 14:01:54.102,  0.2323, -0.1967,  0.9654
2019/09/12 14:01:54.103,  0.2323, -0.1967,  0.9654
2019/09/12 14:01:54.105,  0.5624, -0.0693,  0.5907
2019/09/12 14:01:54.107,  0.5624, -0.0693,  0.5907
2019/09/12 14:01:54.111,  0.5624, -0.0693,  0.5907
2019/09/12 14:01:54.114,  0.5624, -0.0693,  0.5907
2019/09/12 14:01:54.115,  0.5624, -0.0693,  0.5907
2019/09/12 14:01:54.117,  0.5624, -0.0693,  0.5907
2019/09/12 14:01:54.119,  0.5624, -0.0693,  0.5907
2019/09/12 14:01:54.120,  0.5624, -0.0693,  0.5907
2019/09/12 14:01:54.122,  0.5624, -0.0693,  0.5907
2019/09/12 14:01:54.124,  0.5624, -0.0693,  0.5907
2019/09/12 14:01:54.125,  0.8753,  0.0637,  0.3367
2019/09/12 14:01:54.127,  0.8753,  0.0637,  0.3367
2019/09/12 14:01:54.129,  0.8753,  0.0637,  0.3367
2019/09/12 14:01:54.130,  0.8753,  0.0637,  0.3367
2019/09/12 14:01:54.132,  0.8753,  0.0637,  0.3367
2019/09/12 14:01:54.134,  0.8753,  0.0637,  0.3367
2019/09/12 14:01:54.135,  0.8753,  0.0637,  0.3367
2019/09/12 14:01:54.137,  0.8753,  0.0637,  0.3367
2019/09/12 14:01:54.138,  0.8753,  0.0637,  0.3367
2019/09/12 14:01:54.140,  0.8753,  0.0637,  0.3367
2019/09/12 14:01:54.142,  0.8753,  0.0637,  0.3367
2019/09/12 14:01:54.143,  0.8753,  0.0637,  0.3367
2019/09/12 14:01:54.145,  0.6615,  0.2265, -0.0316
2019/09/12 14:01:54.146,  0.6615,  0.2265, -0.0316
2019/09/12 14:01:54.148,  0.6615,  0.2265, -0.0316
2019/09/12 14:01:54.149,  0.6615,  0.2265, -0.0316
2019/09/12 14:01:54.151,  0.6615,  0.2265, -0.0316
2019/09/12 14:01:54.152,  0.6615,  0.2265, -0.0316
2019/09/12 14:01:54.154,  0.6615,  0.2265, -0.0316
2019/09/12 14:01:54.156,  0.6615,  0.2265, -0.0316
2019/09/12 14:01:54.157,  0.6615,  0.2265, -0.0316
2019/09/12 14:01:54.159,  0.6615,  0.2265, -0.0316
2019/09/12 14:01:54.161,  0.6615,  0.2265, -0.0316
2019/09/12 14:01:54.162,  0.6615,  0.2265, -0.0316
2019/09/12 14:01:54.164,  0.6615,  0.2265, -0.0316
2019/09/12 14:01:54.166,  0.8179,  0.0589, -0.2062
2019/09/12 14:01:54.167,  0.8179,  0.0589, -0.2062
2019/09/12 14:01:54.169,  0.8179,  0.0589, -0.2062
2019/09/12 14:01:54.170,  0.8179,  0.0589, -0.2062
2019/09/12 14:01:54.173,  0.8179,  0.0589, -0.2062
2019/09/12 14:01:54.174,  0.8179,  0.0589, -0.2062
2019/09/12 14:01:54.176,  0.8179,  0.0589, -0.2062
2019/09/12 14:01:54.177,  0.8179,  0.0589, -0.2062
2019/09/12 14:01:54.179,  0.8179,  0.0589, -0.2062
2019/09/12 14:01:54.181,  0.8179,  0.0589, -0.2062
2019/09/12 14:01:54.183,  0.8179,  0.0589, -0.2062
2019/09/12 14:01:54.185,  0.8179,  0.0589, -0.2062
2019/09/12 14:01:54.186,  1.5987,  0.2570,  0.4324
2019/09/12 14:01:54.188,  1.5987,  0.2570,  0.4324
2019/09/12 14:01:54.189,  1.5987,  0.2570,  0.4324
2019/09/12 14:01:54.191,  1.5987,  0.2570,  0.4324
2019/09/12 14:01:54.193,  1.5987,  0.2570,  0.4324
2019/09/12 14:01:54.194,  1.5987,  0.2570,  0.4324
2019/09/12 14:01:54.195,  1.5987,  0.2570,  0.4324
2019/09/12 14:01:54.197,  1.5987,  0.2570,  0.4324
2019/09/12 14:01:54.198,  1.5987,  0.2570,  0.4324
2019/09/12 14:01:54.200,  1.5987,  0.2570,  0.4324
2019/09/12 14:01:54.202,  1.5987,  0.2570,  0.4324
2019/09/12 14:01:54.203,  1.5987,  0.2570,  0.4324
2019/09/12 14:01:54.205,  1.1509,  0.4159,  0.1741
2019/09/12 14:01:54.207,  1.1509,  0.4159,  0.1741
2019/09/12 14:01:54.209,  1.1509,  0.4159,  0.1741
2019/09/12 14:01:54.210,  1.1509,  0.4159,  0.1741
2019/09/12 14:01:54.212,  1.1509,  0.4159,  0.1741
2019/09/12 14:01:54.214,  1.1509,  0.4159,  0.1741
2019/09/12 14:01:54.215,  1.1509,  0.4159,  0.1741
2019/09/12 14:01:54.217,  1.1509,  0.4159,  0.1741
2019/09/12 14:01:54.219,  1.1509,  0.4159,  0.1741
2019/09/12 14:01:54.220,  1.1509,  0.4159,  0.1741
2019/09/12 14:01:54.222,  1.1509,  0.4159,  0.1741
2019/09/12 14:01:54.223,  1.1509,  0.4159,  0.1741
2019/09/12 14:01:54.225, -0.0204,  1.7895,  0.8744
2019/09/12 14:01:54.227, -0.0204,  1.7895,  0.8744
2019/09/12 14:01:54.228, -0.0204,  1.7895,  0.8744
2019/09/12 14:01:54.230, -0.0204,  1.7895,  0.8744
2019/09/12 14:01:54.232, -0.0204,  1.7895,  0.8744
2019/09/12 14:01:54.233, -0.0204,  1.7895,  0.8744
2019/09/12 14:01:54.235, -0.0204,  1.7895,  0.8744
2019/09/12 14:01:54.236, -0.0204,  1.7895,  0.8744
2019/09/12 14:01:54.237, -0.0204,  1.7895,  0.8744
2019/09/12 14:01:54.239, -0.0204,  1.7895,  0.8744
2019/09/12 14:01:54.240, -0.0204,  1.7895,  0.8744
2019/09/12 14:01:54.242, -0.0204,  1.7895,  0.8744
2019/09/12 14:01:54.244, -0.0204,  1.7895,  0.8744
2019/09/12 14:01:54.246, -0.7285, -1.5484, -1.5018
2019/09/12 14:01:54.248, -0.7285, -1.5484, -1.5018
2019/09/12 14:01:54.249, -0.7285, -1.5484, -1.5018
2019/09/12 14:01:54.251, -0.7285, -1.5484, -1.5018
2019/09/12 14:01:54.252, -0.7285, -1.5484, -1.5018
2019/09/12 14:01:54.269,  2.1586,  0.9546, -1.0092
2019/09/12 14:01:54.271,  2.1586,  0.9546, -1.0092
2019/09/12 14:01:54.273,  2.1586,  0.9546, -1.0092
2019/09/12 14:01:54.274,  2.1586,  0.9546, -1.0092
2019/09/12 14:01:54.277,  2.1586,  0.9546, -1.0092
2019/09/12 14:01:54.279,  2.1586,  0.9546, -1.0092
2019/09/12 14:01:54.281,  2.1586,  0.9546, -1.0092
2019/09/12 14:01:54.282,  2.1586,  0.9546, -1.0092
2019/09/12 14:01:54.284,  2.1586,  0.9546, -1.0092
2019/09/12 14:01:54.286,  1.3116,  0.1572, -1.4158
2019/09/12 14:01:54.288,  1.3116,  0.1572, -1.4158
2019/09/12 14:01:54.290,  1.3116,  0.1572, -1.4158
2019/09/12 14:01:54.291,  1.3116,  0.1572, -1.4158
2019/09/12 14:01:54.293,  1.3116,  0.1572, -1.4158
2019/09/12 14:01:54.295,  1.3116,  0.1572, -1.4158
2019/09/12 14:01:54.297,  1.3116,  0.1572, -1.4158
2019/09/12 14:01:54.299,  1.3116,  0.1572, -1.4158
2019/09/12 14:01:54.300,  1.3116,  0.1572, -1.4158
2019/09/12 14:01:54.303,  1.3116,  0.1572, -1.4158
2019/09/12 14:01:54.306,  0.9414,  0.1627,  0.4829
2019/09/12 14:01:54.309,  0.9414,  0.1627,  0.4829
2019/09/12 14:01:54.311,  0.9414,  0.1627,  0.4829
2019/09/12 14:01:54.312,  0.9414,  0.1627,  0.4829
2019/09/12 14:01:54.314,  0.9414,  0.1627,  0.4829
2019/09/12 14:01:54.315,  0.9414,  0.1627,  0.4829
2019/09/12 14:01:54.317,  0.9414,  0.1627,  0.4829
2019/09/12 14:01:54.319,  0.9414,  0.1627,  0.4829
2019/09/12 14:01:54.321,  0.9414,  0.1627,  0.4829
2019/09/12 14:01:54.322,  0.9414,  0.1627,  0.4829
2019/09/12 14:01:54.324,  0.9414,  0.1627,  0.4829
2019/09/12 14:01:54.325,  1.2323, -0.1962,  0.0938
2019/09/12 14:01:54.327,  1.2323, -0.1962,  0.0938
2019/09/12 14:01:54.329,  1.2323, -0.1962,  0.0938
2019/09/12 14:01:54.331,  1.2323, -0.1962,  0.0938
2019/09/12 14:01:54.332,  1.2323, -0.1962,  0.0938
2019/09/12 14:01:54.334,  1.2323, -0.1962,  0.0938
2019/09/12 14:01:54.335,  1.2323, -0.1962,  0.0938
2019/09/12 14:01:54.337,  1.2323, -0.1962,  0.0938
2019/09/12 14:01:54.339,  1.2323, -0.1962,  0.0938
2019/09/12 14:01:54.341,  1.2323, -0.1962,  0.0938
2019/09/12 14:01:54.343,  1.2323, -0.1962,  0.0938
2019/09/12 14:01:54.345,  1.2323, -0.1962,  0.0938
2019/09/12 14:01:54.347, -0.3725,  0.5735,  1.7932
2019/09/12 14:01:54.349, -0.3725,  0.5735,  1.7932
2019/09/12 14:01:54.351, -0.3725,  0.5735,  1.7932
2019/09/12 14:01:54.353, -0.3725,  0.5735,  1.7932
2019/09/12 14:01:54.355, -0.3725,  0.5735,  1.7932
2019/09/12 14:01:54.357, -0.3725,  0.5735,  1.7932
2019/09/12 14:01:54.359, -0.3725,  0.5735,  1.7932
2019/09/12 14:01:54.361, -0.3725,  0.5735,  1.7932
2019/09/12 14:01:54.363, -0.3725,  0.5735,  1.7932
2019/09/12 14:01:54.365, -0.3725,  0.5735,  1.7932
2019/09/12 14:01:54.367, -3.0352,  0.3247,  4.3738
2019/09/12 14:01:54.370, -3.0352,  0.3247,  4.3738
2019/09/12 14:01:54.372, -3.0352,  0.3247,  4.3738
2019/09/12 14:01:54.374, -3.0352,  0.3247,  4.3738
2019/09/12 14:01:54.375, -3.0352,  0.3247,  4.3738
2019/09/12 14:01:54.376, -3.0352,  0.3247,  4.3738
2019/09/12 14:01:54.378, -3.0352,  0.3247,  4.3738
2019/09/12 14:01:54.380, -3.0352,  0.3247,  4.3738
2019/09/12 14:01:54.383, -3.0352,  0.3247,  4.3738
2019/09/12 14:01:54.385, -3.0352,  0.3247,  4.3738
2019/09/12 14:01:54.387, -2.7072,  1.0447,  3.9869
2019/09/12 14:01:54.389, -2.7072,  1.0447,  3.9869
2019/09/12 14:01:54.391, -2.7072,  1.0447,  3.9869
2019/09/12 14:01:54.392, -2.7072,  1.0447,  3.9869
2019/09/12 14:01:54.395, -2.7072,  1.0447,  3.9869
2019/09/12 14:01:54.397, -2.7072,  1.0447,  3.9869
2019/09/12 14:01:54.399, -2.7072,  1.0447,  3.9869
2019/09/12 14:01:54.401, -2.7072,  1.0447,  3.9869
2019/09/12 14:01:54.403, -2.7072,  1.0447,  3.9869
2019/09/12 14:01:54.406, -0.3401,  1.1329,  0.3607
2019/09/12 14:01:54.408, -0.3401,  1.1329,  0.3607
2019/09/12 14:01:54.411, -0.3401,  1.1329,  0.3607
2019/09/12 14:01:54.412, -0.3401,  1.1329,  0.3607
2019/09/12 14:01:54.414, -0.3401,  1.1329,  0.3607
2019/09/12 14:01:54.416, -0.3401,  1.1329,  0.3607
2019/09/12 14:01:54.422, -0.3401,  1.1329,  0.3607
2019/09/12 14:01:54.425, -0.3401,  1.1329,  0.3607
2019/09/12 14:01:54.430, -0.2187,  1.3785, -1.6404
2019/09/12 14:01:54.432, -0.2187,  1.3785, -1.6404
2019/09/12 14:01:54.435, -0.2187,  1.3785, -1.6404
2019/09/12 14:01:54.437, -0.2187,  1.3785, -1.6404
2019/09/12 14:01:54.439, -0.2187,  1.3785, -1.6404
2019/09/12 14:01:54.440, -0.2187,  1.3785, -1.6404
2019/09/12 14:01:54.443, -0.2187,  1.3785, -1.6404
2019/09/12 14:01:54.447, -0.2852,  1.1725, -0.3182
2019/09/12 14:01:54.450, -0.2852,  1.1725, -0.3182
2019/09/12 14:01:54.455, -0.2852,  1.1725, -0.3182
2019/09/12 14:01:54.459, -0.2852,  1.1725, -0.3182
2019/09/12 14:01:54.470, -0.2852,  1.1725, -0.3182
2019/09/12 14:01:54.473,  0.4878,  0.1693,  0.2722
2019/09/12 14:01:54.476,  0.4878,  0.1693,  0.2722
2019/09/12 14:01:54.479,  0.4878,  0.1693,  0.2722
2019/09/12 14:01:54.482,  0.4878,  0.1693,  0.2722
2019/09/12 14:01:54.487,  0.4878,  0.1693,  0.2722
2019/09/12 14:01:54.491,  0.7516,  0.2131,  0.5676
2019/09/12 14:01:54.497,  0.7516,  0.2131,  0.5676
2019/09/12 14:01:54.499,  0.7516,  0.2131,  0.5676
2019/09/12 14:01:54.501,  0.7516,  0.2131,  0.5676
2019/09/12 14:01:54.504,  0.7516,  0.2131,  0.5676
2019/09/12 14:01:54.506, -0.5273,  0.3349,  0.2975
2019/09/12 14:01:54.509, -0.5273,  0.3349,  0.2975
2019/09/12 14:01:54.512, -0.5273,  0.3349,  0.2975
2019/09/12 14:01:54.518, -0.5273,  0.3349,  0.2975
2019/09/12 14:01:54.521, -0.5273,  0.3349,  0.2975
2019/09/12 14:01:54.524, -0.5273,  0.3349,  0.2975
2019/09/12 14:01:54.526, -1.9239, -0.1672,  1.4770
2019/09/12 14:01:54.527, -1.9239, -0.1672,  1.4770
2019/09/12 14:01:54.531, -1.9239, -0.1672,  1.4770
2019/09/12 14:01:54.534, -1.9239, -0.1672,  1.4770
2019/09/12 14:01:54.536, -1.9239, -0.1672,  1.4770
2019/09/12 14:01:54.539, -1.9239, -0.1672,  1.4770
2019/09/12 14:01:54.540, -1.9239, -0.1672,  1.4770
2019/09/12 14:01:54.542, -1.9239, -0.1672,  1.4770
2019/09/12 14:01:54.543, -1.9239, -0.1672,  1.4770
2019/09/12 14:01:54.545, -1.5547, -0.8582,  2.7716
2019/09/12 14:01:54.553, -1.5547, -0.8582,  2.7716
2019/09/12 14:01:54.554, -1.5547, -0.8582,  2.7716
2019/09/12 14:01:54.557, -1.5547, -0.8582,  2.7716
2019/09/12 14:01:54.562, -1.5547, -0.8582,  2.7716
2019/09/12 14:01:54.567, -1.5547, -0.8582,  2.7716
2019/09/12 14:01:54.569, -1.1229, -1.0359,  2.2196
2019/09/12 14:01:54.571, -1.1229, -1.0359,  2.2196
2019/09/12 14:01:54.573, -1.1229, -1.0359,  2.2196
2019/09/12 14:01:54.578, -1.1229, -1.0359,  2.2196
2019/09/12 14:01:54.579, -1.1229, -1.0359,  2.2196
2019/09/12 14:01:54.584, -1.1229, -1.0359,  2.2196
2019/09/12 14:01:54.597, -1.1265, -0.5177,  1.2121
2019/09/12 14:01:54.601, -1.1265, -0.5177,  1.2121
2019/09/12 14:01:54.604, -1.1265, -0.5177,  1.2121
2019/09/12 14:01:54.608, -0.6593, -0.2896,  0.9619
2019/09/12 14:01:54.615, -0.6593, -0.2896,  0.9619
2019/09/12 14:01:54.618, -0.6593, -0.2896,  0.9619
2019/09/12 14:01:54.621, -0.6593, -0.2896,  0.9619
2019/09/12 14:01:54.623, -0.6593, -0.2896,  0.9619
2019/09/12 14:01:54.624, -0.6593, -0.2896,  0.9619
2019/09/12 14:01:54.627, -0.5268,  0.1100,  0.4821
2019/09/12 14:01:54.634, -0.5268,  0.1100,  0.4821
2019/09/12 14:01:54.637, -0.5268,  0.1100,  0.4821
2019/09/12 14:01:54.643, -0.5268,  0.1100,  0.4821
2019/09/12 14:01:54.647, -0.5367,  0.5658, -0.4803
2019/09/12 14:01:54.650, -0.5367,  0.5658, -0.4803
2019/09/12 14:01:54.659, -0.5367,  0.5658, -0.4803
2019/09/12 14:01:54.662, -0.5367,  0.5658, -0.4803
2019/09/12 14:01:54.666, -0.5367,  0.5658, -0.4803
2019/09/12 14:01:54.673, -0.2629,  0.5718, -1.2253
2019/09/12 14:01:54.680, -0.2629,  0.5718, -1.2253
2019/09/12 14:01:54.684, -0.2629,  0.5718, -1.2253
2019/09/12 14:01:54.688,  0.1193,  0.5235, -1.7897
2019/09/12 14:01:54.691,  0.1193,  0.5235, -1.7897
2019/09/12 14:01:54.692,  0.1193,  0.5235, -1.7897
2019/09/12 14:01:54.694,  0.1193,  0.5235, -1.7897
2019/09/12 14:01:54.696,  0.1193,  0.5235, -1.7897
2019/09/12 14:01:54.698,  0.1193,  0.5235, -1.7897
2019/09/12 14:01:54.701,  0.1193,  0.5235, -1.7897
2019/09/12 14:01:54.704,  0.1193,  0.5235, -1.7897
2019/09/12 14:01:54.707,  0.4190,  0.1646, -1.7654
2019/09/12 14:01:54.711,  0.4190,  0.1646, -1.7654
2019/09/12 14:01:54.713,  0.4190,  0.1646, -1.7654
2019/09/12 14:01:54.715,  0.4190,  0.1646, -1.7654
2019/09/12 14:01:54.719,  0.4190,  0.1646, -1.7654
2019/09/12 14:01:54.721,  0.4190,  0.1646, -1.7654
2019/09/12 14:01:54.723,  0.4190,  0.1646, -1.7654
2019/09/12 14:01:54.725,  0.2681, -0.2214, -0.9405
2019/09/12 14:01:54.726,  0.2681, -0.2214, -0.9405
2019/09/12 14:01:54.727,  0.2681, -0.2214, -0.9405
2019/09/12 14:01:54.732,  0.2681, -0.2214, -0.9405
2019/09/12 14:01:54.737,  0.2681, -0.2214, -0.9405
2019/09/12 14:01:54.740,  0.2681, -0.2214, -0.9405
2019/09/12 14:01:54.742,  0.2681, -0.2214, -0.9405
2019/09/12 14:01:54.743,  0.2681, -0.2214, -0.9405
2019/09/12 14:01:54.744,  0.2681, -0.2214, -0.9405
2019/09/12 14:01:54.746,  0.4590, -0.2819, -0.3305
2019/09/12 14:01:54.748,  0.4590, -0.2819, -0.3305
2019/09/12 14:01:54.753,  0.4590, -0.2819, -0.3305
2019/09/12 14:01:54.756,  0.4590, -0.2819, -0.3305
2019/09/12 14:01:54.758,  0.4590, -0.2819, -0.3305
2019/09/12 14:01:54.760,  0.4590, -0.2819, -0.3305
2019/09/12 14:01:54.762,  0.4590, -0.2819, -0.3305
2019/09/12 14:01:54.764,  0.4590, -0.2819, -0.3305
2019/09/12 14:01:54.768,  0.1643, -0.3551, -0.0775
2019/09/12 14:01:54.773,  0.1643, -0.3551, -0.0775
2019/09/12 14:01:54.774,  0.1643, -0.3551, -0.0775
2019/09/12 14:01:54.776,  0.1643, -0.3551, -0.0775
2019/09/12 14:01:54.779,  0.1643, -0.3551, -0.0775
2019/09/12 14:01:54.784,  0.1643, -0.3551, -0.0775
2019/09/12 14:01:54.789, -0.0868, -0.2496, -0.0402
2019/09/12 14:01:54.791, -0.0868, -0.2496, -0.0402
2019/09/12 14:01:54.792, -0.0868, -0.2496, -0.0402
2019/09/12 14:01:54.794, -0.0868, -0.2496, -0.0402
2019/09/12 14:01:54.795, -0.0868, -0.2496, -0.0402
2019/09/12 14:01:54.798, -0.0868, -0.2496, -0.0402
2019/09/12 14:01:54.800, -0.0868, -0.2496, -0.0402
2019/09/12 14:01:54.803, -0.0868, -0.2496, -0.0402
2019/09/12 14:01:54.805, -0.5879, -0.0312,  0.1385
2019/09/12 14:01:54.807, -0.5879, -0.0312,  0.1385
2019/09/12 14:01:54.808, -0.5879, -0.0312,  0.1385
2019/09/12 14:01:54.810, -0.5879, -0.0312,  0.1385
2019/09/12 14:01:54.811, -0.5879, -0.0312,  0.1385
2019/09/12 14:01:54.813, -0.5879, -0.0312,  0.1385
2019/09/12 14:01:54.816, -0.5879, -0.0312,  0.1385
2019/09/12 14:01:54.823, -0.5879, -0.0312,  0.1385
2019/09/12 14:01:54.826, -0.6278,  0.0439,  0.3907
2019/09/12 14:01:54.827, -0.6278,  0.0439,  0.3907
2019/09/12 14:01:54.829, -0.6278,  0.0439,  0.3907
2019/09/12 14:01:54.832, -0.6278,  0.0439,  0.3907
2019/09/12 14:01:54.834, -0.6278,  0.0439,  0.3907
2019/09/12 14:01:54.836, -0.6278,  0.0439,  0.3907
2019/09/12 14:01:54.838, -0.6278,  0.0439,  0.3907
2019/09/12 14:01:54.841, -0.6278,  0.0439,  0.3907
2019/09/12 14:01:54.843, -0.6278,  0.0439,  0.3907
2019/09/12 14:01:54.845, -0.4286,  0.2014,  0.1389
2019/09/12 14:01:54.846, -0.4286,  0.2014,  0.1389
2019/09/12 14:01:54.850, -0.4286,  0.2014,  0.1389
2019/09/12 14:01:54.853, -0.4286,  0.2014,  0.1389
2019/09/12 14:01:54.855, -0.4286,  0.2014,  0.1389
2019/09/12 14:01:54.861, -0.4286,  0.2014,  0.1389
2019/09/12 14:01:54.862, -0.4286,  0.2014,  0.1389
2019/09/12 14:01:54.866, -0.4286,  0.2014,  0.1389
2019/09/12 14:01:54.868, -0.0407,  0.3625, -0.2230
2019/09/12 14:01:54.870, -0.0407,  0.3625, -0.2230
2019/09/12 14:01:54.872, -0.0407,  0.3625, -0.2230
2019/09/12 14:01:54.878, -0.0407,  0.3625, -0.2230
2019/09/12 14:01:54.879, -0.0407,  0.3625, -0.2230
2019/09/12 14:01:54.882, -0.0407,  0.3625, -0.2230
2019/09/12 14:01:54.883, -0.0407,  0.3625, -0.2230
2019/09/12 14:01:54.885, -0.0407,  0.3625, -0.2230
2019/09/12 14:01:54.887,  0.1777,  0.4670, -0.2443
2019/09/12 14:01:54.889,  0.1777,  0.4670, -0.2443
2019/09/12 14:01:54.895,  0.1777,  0.4670, -0.2443
2019/09/12 14:01:54.896,  0.1777,  0.4670, -0.2443
2019/09/12 14:01:54.900,  0.1777,  0.4670, -0.2443
2019/09/12 14:01:54.903,  0.1777,  0.4670, -0.2443
2019/09/12 14:01:54.906,  0.2125,  0.6620, -0.1023
2019/09/12 14:01:54.909,  0.2125,  0.6620, -0.1023
2019/09/12 14:01:54.910,  0.2125,  0.6620, -0.1023
2019/09/12 14:01:54.912,  0.2125,  0.6620, -0.1023
2019/09/12 14:01:54.917,  0.2125,  0.6620, -0.1023
2019/09/12 14:01:54.919,  0.2125,  0.6620, -0.1023
2019/09/12 14:01:54.922,  0.2125,  0.6620, -0.1023
2019/09/12 14:01:54.923,  0.2125,  0.6620, -0.1023
2019/09/12 14:01:54.924,  0.3616,  0.7977,  0.3901
2019/09/12 14:01:54.926,  0.3616,  0.7977,  0.3901
2019/09/12 14:01:54.928,  0.3616,  0.7977,  0.3901
2019/09/12 14:01:54.929,  0.3616,  0.7977,  0.3901
2019/09/12 14:01:54.935,  0.3616,  0.7977,  0.3901
2019/09/12 14:01:54.937,  0.3616,  0.7977,  0.3901
2019/09/12 14:01:54.939,  0.3616,  0.7977,  0.3901
2019/09/12 14:01:54.941,  0.3616,  0.7977,  0.3901
2019/09/12 14:01:54.943,  0.3616,  0.7977,  0.3901
2019/09/12 14:01:54.945,  0.5592,  0.6180,  1.0782
2019/09/12 14:01:54.946,  0.5592,  0.6180,  1.0782
2019/09/12 14:01:54.949,  0.5592,  0.6180,  1.0782
2019/09/12 14:01:54.951,  0.5592,  0.6180,  1.0782
2019/09/12 14:01:54.953,  0.5592,  0.6180,  1.0782
2019/09/12 14:01:54.955,  0.5592,  0.6180,  1.0782
2019/09/12 14:01:54.957,  0.5592,  0.6180,  1.0782
2019/09/12 14:01:54.959,  0.5592,  0.6180,  1.0782
2019/09/12 14:01:54.961,  0.5592,  0.6180,  1.0782
2019/09/12 14:01:54.963,  0.5592,  0.6180,  1.0782
2019/09/12 14:01:54.967,  0.2625,  0.2080,  0.9323
2019/09/12 14:01:54.976,  0.2625,  0.2080,  0.9323
2019/09/12 14:01:54.977,  0.2625,  0.2080,  0.9323
2019/09/12 14:01:54.980,  0.2625,  0.2080,  0.9323
2019/09/12 14:01:54.983,  0.2625,  0.2080,  0.9323
2019/09/12 14:01:54.985,  0.2625,  0.2080,  0.9323
2019/09/12 14:01:54.987, -0.6784,  0.0418,  1.9311
2019/09/12 14:01:54.990, -0.6784,  0.0418,  1.9311
2019/09/12 14:01:54.992, -0.6784,  0.0418,  1.9311
2019/09/12 14:01:54.994, -0.6784,  0.0418,  1.9311
2019/09/12 14:01:54.995, -0.6784,  0.0418,  1.9311
2019/09/12 14:01:54.996, -0.6784,  0.0418,  1.9311
2019/09/12 14:01:54.997, -0.6784,  0.0418,  1.9311
2019/09/12 14:01:55.001, -0.6784,  0.0418,  1.9311
2019/09/12 14:01:55.003, -0.6784,  0.0418,  1.9311
2019/09/12 14:01:55.004, -1.5983, -0.7482,  3.6475
2019/09/12 14:01:55.007, -1.5983, -0.7482,  3.6475
2019/09/12 14:01:55.008, -1.5983, -0.7482,  3.6475
2019/09/12 14:01:55.010, -1.5983, -0.7482,  3.6475
2019/09/12 14:01:55.012, -1.5983, -0.7482,  3.6475
2019/09/12 14:01:55.013, -1.5983, -0.7482,  3.6475
2019/09/12 14:01:55.014, -1.5983, -0.7482,  3.6475
2019/09/12 14:01:55.018, -1.5983, -0.7482,  3.6475
2019/09/12 14:01:55.020, -1.5983, -0.7482,  3.6475
2019/09/12 14:01:55.021, -1.5983, -0.7482,  3.6475
2019/09/12 14:01:55.023, -1.5983, -0.7482,  3.6475
2019/09/12 14:01:55.025, -0.9695, -1.1065,  4.6191
2019/09/12 14:01:55.026, -0.9695, -1.1065,  4.6191
2019/09/12 14:01:55.027, -0.9695, -1.1065,  4.6191
2019/09/12 14:01:55.028, -0.9695, -1.1065,  4.6191
2019/09/12 14:01:55.030, -0.9695, -1.1065,  4.6191
2019/09/12 14:01:55.031, -0.9695, -1.1065,  4.6191
2019/09/12 14:01:55.034, -0.9695, -1.1065,  4.6191
2019/09/12 14:01:55.035, -0.9695, -1.1065,  4.6191
2019/09/12 14:01:55.036, -0.9695, -1.1065,  4.6191
2019/09/12 14:01:55.037, -0.9695, -1.1065,  4.6191
2019/09/12 14:01:55.039, -0.9695, -1.1065,  4.6191
2019/09/12 14:01:55.041, -0.9695, -1.1065,  4.6191
2019/09/12 14:01:55.042, -0.9695, -1.1065,  4.6191
2019/09/12 14:01:55.044, -0.9695, -1.1065,  4.6191
2019/09/12 14:01:55.046,  0.3981, -1.2772,  3.1534
2019/09/12 14:01:55.047,  0.3981, -1.2772,  3.1534
2019/09/12 14:01:55.048,  0.3981, -1.2772,  3.1534
2019/09/12 14:01:55.054,  0.3981, -1.2772,  3.1534
2019/09/12 14:01:55.059,  0.3981, -1.2772,  3.1534
2019/09/12 14:01:55.060,  0.3981, -1.2772,  3.1534
2019/09/12 14:01:55.061,  0.3981, -1.2772,  3.1534
2019/09/12 14:01:55.063,  0.3981, -1.2772,  3.1534
2019/09/12 14:01:55.064,  0.3981, -1.2772,  3.1534
2019/09/12 14:01:55.069,  0.9403, -0.7415,  1.7174
2019/09/12 14:01:55.070,  0.9403, -0.7415,  1.7174
2019/09/12 14:01:55.072,  0.9403, -0.7415,  1.7174
2019/09/12 14:01:55.074,  0.9403, -0.7415,  1.7174
2019/09/12 14:01:55.075,  0.9403, -0.7415,  1.7174
2019/09/12 14:01:55.076,  0.9403, -0.7415,  1.7174
2019/09/12 14:01:55.078,  0.9403, -0.7415,  1.7174
2019/09/12 14:01:55.079,  0.9403, -0.7415,  1.7174
2019/09/12 14:01:55.079,  0.9403, -0.7415,  1.7174
2019/09/12 14:01:55.080,  0.9403, -0.7415,  1.7174
2019/09/12 14:01:55.081,  0.9403, -0.7415,  1.7174
2019/09/12 14:01:55.083,  0.9403, -0.7415,  1.7174
2019/09/12 14:01:55.084,  0.9403, -0.7415,  1.7174
2019/09/12 14:01:55.086,  1.4493, -0.7366,  0.1920
2019/09/12 14:01:55.087,  1.4493, -0.7366,  0.1920
2019/09/12 14:01:55.092,  1.4493, -0.7366,  0.1920
2019/09/12 14:01:55.094,  1.4493, -0.7366,  0.1920
2019/09/12 14:01:55.095,  1.4493, -0.7366,  0.1920
2019/09/12 14:01:55.096,  1.4493, -0.7366,  0.1920
2019/09/12 14:01:55.097,  1.4493, -0.7366,  0.1920
2019/09/12 14:01:55.098,  1.4493, -0.7366,  0.1920
2019/09/12 14:01:55.100,  1.4493, -0.7366,  0.1920
2019/09/12 14:01:55.101,  1.4493, -0.7366,  0.1920
2019/09/12 14:01:55.102,  1.4493, -0.7366,  0.1920
2019/09/12 14:01:55.103,  1.4493, -0.7366,  0.1920
2019/09/12 14:01:55.104,  1.4192, -1.5493, -1.4475
2019/09/12 14:01:55.106,  1.4192, -1.5493, -1.4475
2019/09/12 14:01:55.107,  1.4192, -1.5493, -1.4475
2019/09/12 14:01:55.108,  1.4192, -1.5493, -1.4475
2019/09/12 14:01:55.110,  1.4192, -1.5493, -1.4475
2019/09/12 14:01:55.110,  1.4192, -1.5493, -1.4475
2019/09/12 14:01:55.112,  1.4192, -1.5493, -1.4475
2019/09/12 14:01:55.113,  1.4192, -1.5493, -1.4475
2019/09/12 14:01:55.114,  1.4192, -1.5493, -1.4475
2019/09/12 14:01:55.115,  1.4192, -1.5493, -1.4475
2019/09/12 14:01:55.116,  1.4192, -1.5493, -1.4475
2019/09/12 14:01:55.117,  1.4192, -1.5493, -1.4475
2019/09/12 14:01:55.119,  1.4192, -1.5493, -1.4475
2019/09/12 14:01:55.120,  1.4192, -1.5493, -1.4475
2019/09/12 14:01:55.122,  1.4192, -1.5493, -1.4475
2019/09/12 14:01:55.123,  1.4192, -1.5493, -1.4475
2019/09/12 14:01:55.125,  0.9287, -1.1952, -1.0385
2019/09/12 14:01:55.126,  0.9287, -1.1952, -1.0385
2019/09/12 14:01:55.127,  0.9287, -1.1952, -1.0385
2019/09/12 14:01:55.128,  0.9287, -1.1952, -1.0385
2019/09/12 14:01:55.129,  0.9287, -1.1952, -1.0385
2019/09/12 14:01:55.130,  0.9287, -1.1952, -1.0385
2019/09/12 14:01:55.132,  0.9287, -1.1952, -1.0385
2019/09/12 14:01:55.134,  0.9287, -1.1952, -1.0385
2019/09/12 14:01:55.136,  0.9287, -1.1952, -1.0385
2019/09/12 14:01:55.138,  0.9287, -1.1952, -1.0385
2019/09/12 14:01:55.139,  0.9287, -1.1952, -1.0385
2019/09/12 14:01:55.141,  0.9287, -1.1952, -1.0385
2019/09/12 14:01:55.143,  0.9287, -1.1952, -1.0385
2019/09/12 14:01:55.144,  0.9287, -1.1952, -1.0385
2019/09/12 14:01:55.146,  0.0468, -0.5566, -0.6021
2019/09/12 14:01:55.148,  0.0468, -0.5566, -0.6021
2019/09/12 14:01:55.152,  0.0468, -0.5566, -0.6021
2019/09/12 14:01:55.156,  0.0468, -0.5566, -0.6021
2019/09/12 14:01:55.158,  0.0468, -0.5566, -0.6021
2019/09/12 14:01:55.160,  0.0468, -0.5566, -0.6021
2019/09/12 14:01:55.162,  0.0468, -0.5566, -0.6021
2019/09/12 14:01:55.163,  0.0468, -0.5566, -0.6021
2019/09/12 14:01:55.165, -1.6978, -0.0669,  0.1254
2019/09/12 14:01:55.167, -1.6978, -0.0669,  0.1254
2019/09/12 14:01:55.168, -1.6978, -0.0669,  0.1254
2019/09/12 14:01:55.170, -1.6978, -0.0669,  0.1254
2019/09/12 14:01:55.171, -1.6978, -0.0669,  0.1254
2019/09/12 14:01:55.172, -1.6978, -0.0669,  0.1254
2019/09/12 14:01:55.173, -1.6978, -0.0669,  0.1254
2019/09/12 14:01:55.174, -1.6978, -0.0669,  0.1254
2019/09/12 14:01:55.175, -1.6978, -0.0669,  0.1254
2019/09/12 14:01:55.176, -1.6978, -0.0669,  0.1254
2019/09/12 14:01:55.177, -1.6978, -0.0669,  0.1254
2019/09/12 14:01:55.178, -1.6978, -0.0669,  0.1254
2019/09/12 14:01:55.179, -1.6978, -0.0669,  0.1254
2019/09/12 14:01:55.180, -1.6978, -0.0669,  0.1254
2019/09/12 14:01:55.181, -1.6978, -0.0669,  0.1254
2019/09/12 14:01:55.182, -1.6978, -0.0669,  0.1254
2019/09/12 14:01:55.183, -1.6978, -0.0669,  0.1254
2019/09/12 14:01:55.184, -1.6978, -0.0669,  0.1254
2019/09/12 14:01:55.186, -1.9365,  0.5032,  1.4122
2019/09/12 14:01:55.187, -1.9365,  0.5032,  1.4122
2019/09/12 14:01:55.188, -1.9365,  0.5032,  1.4122
2019/09/12 14:01:55.190, -1.9365,  0.5032,  1.4122
2019/09/12 14:01:55.191, -1.9365,  0.5032,  1.4122
2019/09/12 14:01:55.192, -1.9365,  0.5032,  1.4122
2019/09/12 14:01:55.194, -1.9365,  0.5032,  1.4122
2019/09/12 14:01:55.195, -1.9365,  0.5032,  1.4122
2019/09/12 14:01:55.196, -1.9365,  0.5032,  1.4122
2019/09/12 14:01:55.197, -1.9365,  0.5032,  1.4122
2019/09/12 14:01:55.198, -1.9365,  0.5032,  1.4122
2019/09/12 14:01:55.199, -1.9365,  0.5032,  1.4122
2019/09/12 14:01:55.200, -1.9365,  0.5032,  1.4122
2019/09/12 14:01:55.201, -1.9365,  0.5032,  1.4122
2019/09/12 14:01:55.202, -1.9365,  0.5032,  1.4122
2019/09/12 14:01:55.203, -1.9365,  0.5032,  1.4122
2019/09/12 14:01:55.204, -1.9365,  0.5032,  1.4122
2019/09/12 14:01:55.205, -1.2178,  0.7716,  0.7460
2019/09/12 14:01:55.207, -1.2178,  0.7716,  0.7460
2019/09/12 14:01:55.208, -1.2178,  0.7716,  0.7460
2019/09/12 14:01:55.210, -1.2178,  0.7716,  0.7460
2019/09/12 14:01:55.210, -1.2178,  0.7716,  0.7460
2019/09/12 14:01:55.211, -1.2178,  0.7716,  0.7460
2019/09/12 14:01:55.212, -1.2178,  0.7716,  0.7460
2019/09/12 14:01:55.214, -1.2178,  0.7716,  0.7460
2019/09/12 14:01:55.215, -1.2178,  0.7716,  0.7460
2019/09/12 14:01:55.217, -1.2178,  0.7716,  0.7460
2019/09/12 14:01:55.218, -1.2178,  0.7716,  0.7460
2019/09/12 14:01:55.219, -1.2178,  0.7716,  0.7460
2019/09/12 14:01:55.221, -1.2178,  0.7716,  0.7460
2019/09/12 14:01:55.222, -1.2178,  0.7716,  0.7460
2019/09/12 14:01:55.223, -1.2178,  0.7716,  0.7460
2019/09/12 14:01:55.225, -0.0681,  0.5610, -1.5513
2019/09/12 14:01:55.226, -0.0681,  0.5610, -1.5513
2019/09/12 14:01:55.227, -0.0681,  0.5610, -1.5513
2019/09/12 14:01:55.228, -0.0681,  0.5610, -1.5513
2019/09/12 14:01:55.230, -0.0681,  0.5610, -1.5513
2019/09/12 14:01:55.231, -0.0681,  0.5610, -1.5513
2019/09/12 14:01:55.232, -0.0681,  0.5610, -1.5513
2019/09/12 14:01:55.234, -0.0681,  0.5610, -1.5513
2019/09/12 14:01:55.235, -0.0681,  0.5610, -1.5513
2019/09/12 14:01:55.236, -0.0681,  0.5610, -1.5513
2019/09/12 14:01:55.237, -0.0681,  0.5610, -1.5513
2019/09/12 14:01:55.238, -0.0681,  0.5610, -1.5513
2019/09/12 14:01:55.240, -0.0681,  0.5610, -1.5513
2019/09/12 14:01:55.241, -0.0681,  0.5610, -1.5513
2019/09/12 14:01:55.242, -0.0681,  0.5610, -1.5513
2019/09/12 14:01:55.243, -0.0681,  0.5610, -1.5513
2019/09/12 14:01:55.244, -0.0681,  0.5610, -1.5513
2019/09/12 14:01:55.246,  1.0387,  0.3366, -1.3457
2019/09/12 14:01:55.247,  1.0387,  0.3366, -1.3457
2019/09/12 14:01:55.253,  1.0387,  0.3366, -1.3457
2019/09/12 14:01:55.254,  1.0387,  0.3366, -1.3457
2019/09/12 14:01:55.255,  1.0387,  0.3366, -1.3457
2019/09/12 14:01:55.256,  1.0387,  0.3366, -1.3457
2019/09/12 14:01:55.257,  1.0387,  0.3366, -1.3457
2019/09/12 14:01:55.258,  1.0387,  0.3366, -1.3457
2019/09/12 14:01:55.260,  1.0387,  0.3366, -1.3457
2019/09/12 14:01:55.261,  1.0387,  0.3366, -1.3457
2019/09/12 14:01:55.262,  1.0387,  0.3366, -1.3457
2019/09/12 14:01:55.264,  1.0387,  0.3366, -1.3457
2019/09/12 14:01:55.265, -0.0849, -0.7496, -0.8521
2019/09/12 14:01:55.266, -0.0849, -0.7496, -0.8521
2019/09/12 14:01:55.267, -0.0849, -0.7496, -0.8521
2019/09/12 14:01:55.269, -0.0849, -0.7496, -0.8521
2019/09/12 14:01:55.270, -0.0849, -0.7496, -0.8521
2019/09/12 14:01:55.271, -0.0849, -0.7496, -0.8521
2019/09/12 14:01:55.272, -0.0849, -0.7496, -0.8521
2019/09/12 14:01:55.273, -0.0849, -0.7496, -0.8521
2019/09/12 14:01:55.274, -0.0849, -0.7496, -0.8521
2019/09/12 14:01:55.275, -0.0849, -0.7496, -0.8521
2019/09/12 14:01:55.276, -0.0849, -0.7496, -0.8521
2019/09/12 14:01:55.277, -0.0849, -0.7496, -0.8521
2019/09/12 14:01:55.279, -0.0849, -0.7496, -0.8521
2019/09/12 14:01:55.280, -0.0849, -0.7496, -0.8521
2019/09/12 14:01:55.281, -0.0849, -0.7496, -0.8521
2019/09/12 14:01:55.283, -0.0849, -0.7496, -0.8521
2019/09/12 14:01:55.284, -0.0849, -0.7496, -0.8521
2019/09/12 14:01:55.286, -0.9948, -0.4920,  0.5528
2019/09/12 14:01:55.287, -0.9948, -0.4920,  0.5528
2019/09/12 14:01:55.288, -0.9948, -0.4920,  0.5528
2019/09/12 14:01:55.290, -0.9948, -0.4920,  0.5528
2019/09/12 14:01:55.291, -0.9948, -0.4920,  0.5528
2019/09/12 14:01:55.292, -0.9948, -0.4920,  0.5528
2019/09/12 14:01:55.294, -0.9948, -0.4920,  0.5528
2019/09/12 14:01:55.295, -0.9948, -0.4920,  0.5528
2019/09/12 14:01:55.296, -0.9948, -0.4920,  0.5528
2019/09/12 14:01:55.297, -0.9948, -0.4920,  0.5528
2019/09/12 14:01:55.298, -0.9948, -0.4920,  0.5528
2019/09/12 14:01:55.299, -0.9948, -0.4920,  0.5528
2019/09/12 14:01:55.300, -0.9948, -0.4920,  0.5528
2019/09/12 14:01:55.301, -0.9948, -0.4920,  0.5528
2019/09/12 14:01:55.303, -0.9948, -0.4920,  0.5528
2019/09/12 14:01:55.304, -0.9948, -0.4920,  0.5528
2019/09/12 14:01:55.305, -0.9795, -0.4119,  0.9151
2019/09/12 14:01:55.306, -0.9795, -0.4119,  0.9151
2019/09/12 14:01:55.307, -0.9795, -0.4119,  0.9151
2019/09/12 14:01:55.309, -0.9795, -0.4119,  0.9151
2019/09/12 14:01:55.310, -0.9795, -0.4119,  0.9151
2019/09/12 14:01:55.311, -0.9795, -0.4119,  0.9151
2019/09/12 14:01:55.312, -0.9795, -0.4119,  0.9151
2019/09/12 14:01:55.313, -0.9795, -0.4119,  0.9151
2019/09/12 14:01:55.314, -0.9795, -0.4119,  0.9151
2019/09/12 14:01:55.316, -0.9795, -0.4119,  0.9151
2019/09/12 14:01:55.317, -0.9795, -0.4119,  0.9151
2019/09/12 14:01:55.318, -0.9795, -0.4119,  0.9151
2019/09/12 14:01:55.319, -0.9795, -0.4119,  0.9151
2019/09/12 14:01:55.320, -0.9795, -0.4119,  0.9151
2019/09/12 14:01:55.321, -0.9795, -0.4119,  0.9151
2019/09/12 14:01:55.323, -0.9795, -0.4119,  0.9151
2019/09/12 14:01:55.324, -0.9795, -0.4119,  0.9151
2019/09/12 14:01:55.326, -0.6503, -0.2916,  0.5726
2019/09/12 14:01:55.327, -0.6503, -0.2916,  0.5726
2019/09/12 14:01:55.328, -0.6503, -0.2916,  0.5726
2019/09/12 14:01:55.330, -0.6503, -0.2916,  0.5726
2019/09/12 14:01:55.332, -0.6503, -0.2916,  0.5726
2019/09/12 14:01:55.333, -0.6503, -0.2916,  0.5726
2019/09/12 14:01:55.335, -0.6503, -0.2916,  0.5726
2019/09/12 14:01:55.337, -0.6503, -0.2916,  0.5726
2019/09/12 14:01:55.339, -0.6503, -0.2916,  0.5726
2019/09/12 14:01:55.341, -0.6503, -0.2916,  0.5726
2019/09/12 14:01:55.343, -0.6503, -0.2916,  0.5726
2019/09/12 14:01:55.344, -0.2437, -0.1504,  0.0904
2019/09/12 14:01:55.345, -0.2437, -0.1504,  0.0904
2019/09/12 14:01:55.346, -0.2437, -0.1504,  0.0904
2019/09/12 14:01:55.347, -0.2437, -0.1504,  0.0904
2019/09/12 14:01:55.349, -0.2437, -0.1504,  0.0904
2019/09/12 14:01:55.351, -0.2437, -0.1504,  0.0904
2019/09/12 14:01:55.351, -0.2437, -0.1504,  0.0904
2019/09/12 14:01:55.353, -0.2437, -0.1504,  0.0904
2019/09/12 14:01:55.354, -0.2437, -0.1504,  0.0904
2019/09/12 14:01:55.355, -0.2437, -0.1504,  0.0904
2019/09/12 14:01:55.356, -0.2437, -0.1504,  0.0904
2019/09/12 14:01:55.357, -0.2437, -0.1504,  0.0904
2019/09/12 14:01:55.358, -0.2437, -0.1504,  0.0904
2019/09/12 14:01:55.359, -0.2437, -0.1504,  0.0904
2019/09/12 14:01:55.360, -0.2437, -0.1504,  0.0904
2019/09/12 14:01:55.361, -0.2437, -0.1504,  0.0904
2019/09/12 14:01:55.362, -0.2437, -0.1504,  0.0904
2019/09/12 14:01:55.363, -0.2437, -0.1504,  0.0904
2019/09/12 14:01:55.364,  0.0492,  0.1938, -0.4391
2019/09/12 14:01:55.366,  0.0492,  0.1938, -0.4391
2019/09/12 14:01:55.367,  0.0492,  0.1938, -0.4391
2019/09/12 14:01:55.368,  0.0492,  0.1938, -0.4391
2019/09/12 14:01:55.370,  0.0492,  0.1938, -0.4391
2019/09/12 14:01:55.371,  0.0492,  0.1938, -0.4391
2019/09/12 14:01:55.372,  0.0492,  0.1938, -0.4391
2019/09/12 14:01:55.373,  0.0492,  0.1938, -0.4391
2019/09/12 14:01:55.374,  0.0492,  0.1938, -0.4391
2019/09/12 14:01:55.375,  0.0492,  0.1938, -0.4391
2019/09/12 14:01:55.376,  0.0492,  0.1938, -0.4391
2019/09/12 14:01:55.377,  0.0492,  0.1938, -0.4391
2019/09/12 14:01:55.379,  0.0492,  0.1938, -0.4391
2019/09/12 14:01:55.380,  0.0492,  0.1938, -0.4391
2019/09/12 14:01:55.381,  0.0492,  0.1938, -0.4391
2019/09/12 14:01:55.382,  0.0492,  0.1938, -0.4391
2019/09/12 14:01:55.383,  0.0492,  0.1938, -0.4391
2019/09/12 14:01:55.385,  0.0492,  0.1938, -0.4391
2019/09/12 14:01:55.387, -0.1526, -0.0185, -0.0571
2019/09/12 14:01:55.388, -0.1526, -0.0185, -0.0571
2019/09/12 14:01:55.390, -0.1526, -0.0185, -0.0571
2019/09/12 14:01:55.390, -0.1526, -0.0185, -0.0571
2019/09/12 14:01:55.392, -0.1526, -0.0185, -0.0571
2019/09/12 14:01:55.393, -0.1526, -0.0185, -0.0571
2019/09/12 14:01:55.394, -0.1526, -0.0185, -0.0571
2019/09/12 14:01:55.395, -0.1526, -0.0185, -0.0571
2019/09/12 14:01:55.396, -0.1526, -0.0185, -0.0571
2019/09/12 14:01:55.397, -0.1526, -0.0185, -0.0571
2019/09/12 14:01:55.398, -0.1526, -0.0185, -0.0571
2019/09/12 14:01:55.400, -0.1526, -0.0185, -0.0571
2019/09/12 14:01:55.401, -0.1526, -0.0185, -0.0571
2019/09/12 14:01:55.402, -0.1526, -0.0185, -0.0571
2019/09/12 14:01:55.403, -0.1526, -0.0185, -0.0571
2019/09/12 14:01:55.404, -0.0536,  0.5840,  0.0482
2019/09/12 14:01:55.406, -0.0536,  0.5840,  0.0482
2019/09/12 14:01:55.408, -0.0536,  0.5840,  0.0482
2019/09/12 14:01:55.409, -0.0536,  0.5840,  0.0482
2019/09/12 14:01:55.411, -0.0536,  0.5840,  0.0482
2019/09/12 14:01:55.412, -0.0536,  0.5840,  0.0482
2019/09/12 14:01:55.413, -0.0536,  0.5840,  0.0482
2019/09/12 14:01:55.414, -0.0536,  0.5840,  0.0482
2019/09/12 14:01:55.416, -0.0536,  0.5840,  0.0482
2019/09/12 14:01:55.417, -0.0536,  0.5840,  0.0482
2019/09/12 14:01:55.418, -0.0536,  0.5840,  0.0482
2019/09/12 14:01:55.419, -0.0536,  0.5840,  0.0482
2019/09/12 14:01:55.420, -0.0536,  0.5840,  0.0482
2019/09/12 14:01:55.421, -0.0536,  0.5840,  0.0482
2019/09/12 14:01:55.422, -0.0536,  0.5840,  0.0482
2019/09/12 14:01:55.423, -0.0536,  0.5840,  0.0482
2019/09/12 14:01:55.424, -0.0536,  0.5840,  0.0482
2019/09/12 14:01:55.426, -0.4754,  0.0067, -0.0884
2019/09/12 14:01:55.427, -0.4754,  0.0067, -0.0884
2019/09/12 14:01:55.429, -0.4754,  0.0067, -0.0884
2019/09/12 14:01:55.431, -0.4754,  0.0067, -0.0884
2019/09/12 14:01:55.432, -0.4754,  0.0067, -0.0884
2019/09/12 14:01:55.433, -0.4754,  0.0067, -0.0884
2019/09/12 14:01:55.434, -0.4754,  0.0067, -0.0884
2019/09/12 14:01:55.435, -0.4754,  0.0067, -0.0884
2019/09/12 14:01:55.436, -0.4754,  0.0067, -0.0884
2019/09/12 14:01:55.437, -0.4754,  0.0067, -0.0884
2019/09/12 14:01:55.438, -0.4754,  0.0067, -0.0884
2019/09/12 14:01:55.439, -0.4754,  0.0067, -0.0884
2019/09/12 14:01:55.441, -0.4754,  0.0067, -0.0884
2019/09/12 14:01:55.442, -0.4754,  0.0067, -0.0884
2019/09/12 14:01:55.443, -0.4754,  0.0067, -0.0884
2019/09/12 14:01:55.444, -0.4754,  0.0067, -0.0884
2019/09/12 14:01:55.445, -0.0214,  0.3309, -0.3294
2019/09/12 14:01:55.447, -0.0214,  0.3309, -0.3294
2019/09/12 14:01:55.448, -0.0214,  0.3309, -0.3294
2019/09/12 14:01:55.450, -0.0214,  0.3309, -0.3294
2019/09/12 14:01:55.452, -0.0214,  0.3309, -0.3294
2019/09/12 14:01:55.453, -0.0214,  0.3309, -0.3294
2019/09/12 14:01:55.454, -0.0214,  0.3309, -0.3294
2019/09/12 14:01:55.455, -0.0214,  0.3309, -0.3294
2019/09/12 14:01:55.457, -0.0214,  0.3309, -0.3294
2019/09/12 14:01:55.458, -0.0214,  0.3309, -0.3294
2019/09/12 14:01:55.460, -0.0214,  0.3309, -0.3294
2019/09/12 14:01:55.462, -0.0214,  0.3309, -0.3294
2019/09/12 14:01:55.464, -0.0214,  0.3309, -0.3294
2019/09/12 14:01:55.465,  0.3947, -0.2592, -0.4395
2019/09/12 14:01:55.466,  0.3947, -0.2592, -0.4395
2019/09/12 14:01:55.467,  0.3947, -0.2592, -0.4395
2019/09/12 14:01:55.469,  0.3947, -0.2592, -0.4395
2019/09/12 14:01:55.471,  0.3947, -0.2592, -0.4395
2019/09/12 14:01:55.472,  0.3947, -0.2592, -0.4395
2019/09/12 14:01:55.474,  0.3947, -0.2592, -0.4395
2019/09/12 14:01:55.475,  0.3947, -0.2592, -0.4395
2019/09/12 14:01:55.477,  0.3947, -0.2592, -0.4395
2019/09/12 14:01:55.478,  0.3947, -0.2592, -0.4395
2019/09/12 14:01:55.479,  0.3947, -0.2592, -0.4395
2019/09/12 14:01:55.480,  0.3947, -0.2592, -0.4395
2019/09/12 14:01:55.481,  0.3947, -0.2592, -0.4395
2019/09/12 14:01:55.483,  0.3947, -0.2592, -0.4395
2019/09/12 14:01:55.486,  0.2416, -0.1379, -0.0629
2019/09/12 14:01:55.489,  0.2416, -0.1379, -0.0629
2019/09/12 14:01:55.490,  0.2416, -0.1379, -0.0629
2019/09/12 14:01:55.492,  0.2416, -0.1379, -0.0629
2019/09/12 14:01:55.494,  0.2416, -0.1379, -0.0629
2019/09/12 14:01:55.495,  0.2416, -0.1379, -0.0629
2019/09/12 14:01:55.496,  0.2416, -0.1379, -0.0629
2019/09/12 14:01:55.498,  0.2416, -0.1379, -0.0629
2019/09/12 14:01:55.500,  0.2416, -0.1379, -0.0629
2019/09/12 14:01:55.501,  0.2416, -0.1379, -0.0629
2019/09/12 14:01:55.503,  0.2416, -0.1379, -0.0629
2019/09/12 14:01:55.505,  0.4822,  0.9311,  0.1434
2019/09/12 14:01:55.506,  0.4822,  0.9311,  0.1434
2019/09/12 14:01:55.508,  0.4822,  0.9311,  0.1434
2019/09/12 14:01:55.512,  0.4822,  0.9311,  0.1434
2019/09/12 14:01:55.514,  0.4822,  0.9311,  0.1434
2019/09/12 14:01:55.516,  0.4822,  0.9311,  0.1434
2019/09/12 14:01:55.518,  0.4822,  0.9311,  0.1434
2019/09/12 14:01:55.520,  0.4822,  0.9311,  0.1434
2019/09/12 14:01:55.521,  0.4822,  0.9311,  0.1434
2019/09/12 14:01:55.523,  0.4822,  0.9311,  0.1434
2019/09/12 14:01:55.525,  0.5584,  1.0154, -0.0115
2019/09/12 14:01:55.527,  0.5584,  1.0154, -0.0115
2019/09/12 14:01:55.528,  0.5584,  1.0154, -0.0115
2019/09/12 14:01:55.530,  0.5584,  1.0154, -0.0115
2019/09/12 14:01:55.535,  0.5584,  1.0154, -0.0115
2019/09/12 14:01:55.537,  0.5584,  1.0154, -0.0115
2019/09/12 14:01:55.539,  0.5584,  1.0154, -0.0115
2019/09/12 14:01:55.542,  0.5584,  1.0154, -0.0115
2019/09/12 14:01:55.545,  0.5584,  1.0154, -0.0115
2019/09/12 14:01:55.549,  0.8525,  0.5467,  0.2231
2019/09/12 14:01:55.552,  0.8525,  0.5467,  0.2231
2019/09/12 14:01:55.560,  0.8525,  0.5467,  0.2231
2019/09/12 14:01:55.561,  0.8525,  0.5467,  0.2231
2019/09/12 14:01:55.564,  0.8525,  0.5467,  0.2231
2019/09/12 14:01:55.567,  0.3101, -0.4766, -0.6003
2019/09/12 14:01:55.570,  0.3101, -0.4766, -0.6003
2019/09/12 14:01:55.572,  0.3101, -0.4766, -0.6003
2019/09/12 14:01:55.574,  0.3101, -0.4766, -0.6003
2019/09/12 14:01:55.575,  0.3101, -0.4766, -0.6003
2019/09/12 14:01:55.576,  0.3101, -0.4766, -0.6003
2019/09/12 14:01:55.579,  0.3101, -0.4766, -0.6003
2019/09/12 14:01:55.583,  0.3101, -0.4766, -0.6003
2019/09/12 14:01:55.585,  0.3101, -0.4766, -0.6003
2019/09/12 14:01:55.587,  0.8115,  0.2799, -1.0930
2019/09/12 14:01:55.590,  0.8115,  0.2799, -1.0930
2019/09/12 14:01:55.591,  0.8115,  0.2799, -1.0930
2019/09/12 14:01:55.592,  0.8115,  0.2799, -1.0930
2019/09/12 14:01:55.594,  0.8115,  0.2799, -1.0930
2019/09/12 14:01:55.596,  0.8115,  0.2799, -1.0930
2019/09/12 14:01:55.598,  0.8115,  0.2799, -1.0930
2019/09/12 14:01:55.600,  0.8115,  0.2799, -1.0930
2019/09/12 14:01:55.601,  0.8115,  0.2799, -1.0930
2019/09/12 14:01:55.605,  1.1601,  0.5692,  0.2281
2019/09/12 14:01:55.607,  1.1601,  0.5692,  0.2281
2019/09/12 14:01:55.609,  1.1601,  0.5692,  0.2281
2019/09/12 14:01:55.612,  1.1601,  0.5692,  0.2281
2019/09/12 14:01:55.614,  1.1601,  0.5692,  0.2281
2019/09/12 14:01:55.616,  1.1601,  0.5692,  0.2281
2019/09/12 14:01:55.617,  1.1601,  0.5692,  0.2281
2019/09/12 14:01:55.619,  1.1601,  0.5692,  0.2281
2019/09/12 14:01:55.621,  1.1601,  0.5692,  0.2281
2019/09/12 14:01:55.623,  1.1601,  0.5692,  0.2281
2019/09/12 14:01:55.625,  0.5291,  0.6808,  1.3559
2019/09/12 14:01:55.626,  0.5291,  0.6808,  1.3559
2019/09/12 14:01:55.628,  0.5291,  0.6808,  1.3559
2019/09/12 14:01:55.631,  0.5291,  0.6808,  1.3559
2019/09/12 14:01:55.635,  0.5291,  0.6808,  1.3559
2019/09/12 14:01:55.640,  0.5291,  0.6808,  1.3559
2019/09/12 14:01:55.644,  0.5291,  0.6808,  1.3559
2019/09/12 14:01:55.647,  0.7770,  0.5257,  1.0894
2019/09/12 14:01:55.650,  0.7770,  0.5257,  1.0894
2019/09/12 14:01:55.654,  0.7770,  0.5257,  1.0894
2019/09/12 14:01:55.656,  0.7770,  0.5257,  1.0894
2019/09/12 14:01:55.658,  0.7770,  0.5257,  1.0894
2019/09/12 14:01:55.659,  0.7770,  0.5257,  1.0894
2019/09/12 14:01:55.661,  0.7770,  0.5257,  1.0894
2019/09/12 14:01:55.664,  0.7770,  0.5257,  1.0894
2019/09/12 14:01:55.668,  1.8298,  0.1549,  1.6623
2019/09/12 14:01:55.673,  1.8298,  0.1549,  1.6623
2019/09/12 14:01:55.676,  1.8298,  0.1549,  1.6623
2019/09/12 14:01:55.678,  1.8298,  0.1549,  1.6623
2019/09/12 14:01:55.681,  1.8298,  0.1549,  1.6623
2019/09/12 14:01:55.685,  1.8298,  0.1549,  1.6623
2019/09/12 14:01:55.691,  0.7434, -1.3512,  2.7085
2019/09/12 14:01:55.693,  0.7434, -1.3512,  2.7085
2019/09/12 14:01:55.695,  0.7434, -1.3512,  2.7085
2019/09/12 14:01:55.697,  0.7434, -1.3512,  2.7085
2019/09/12 14:01:55.700,  0.7434, -1.3512,  2.7085
2019/09/12 14:01:55.702,  0.7434, -1.3512,  2.7085
2019/09/12 14:01:55.707,  0.7434, -1.3512,  2.7085
2019/09/12 14:01:55.708, -0.1720, -0.6425,  2.7830
2019/09/12 14:01:55.710, -0.1720, -0.6425,  2.7830
2019/09/12 14:01:55.712, -0.1720, -0.6425,  2.7830
2019/09/12 14:01:55.716, -0.1720, -0.6425,  2.7830
2019/09/12 14:01:55.717, -0.1720, -0.6425,  2.7830
2019/09/12 14:01:55.719, -0.1720, -0.6425,  2.7830
2019/09/12 14:01:55.722, -0.1720, -0.6425,  2.7830
2019/09/12 14:01:55.726, -2.3148,  0.3258, -0.1084
2019/09/12 14:01:55.729, -2.3148,  0.3258, -0.1084
2019/09/12 14:01:55.732, -2.3148,  0.3258, -0.1084
2019/09/12 14:01:55.734, -2.3148,  0.3258, -0.1084
2019/09/12 14:01:55.735, -2.3148,  0.3258, -0.1084
2019/09/12 14:01:55.736, -2.3148,  0.3258, -0.1084
2019/09/12 14:01:55.740, -2.3148,  0.3258, -0.1084
2019/09/12 14:01:55.742, -2.3148,  0.3258, -0.1084
2019/09/12 14:01:55.743, -2.3148,  0.3258, -0.1084
2019/09/12 14:01:55.746, -3.2612,  2.0615, -1.2306
2019/09/12 14:01:55.749, -3.2612,  2.0615, -1.2306
2019/09/12 14:01:55.751, -3.2612,  2.0615, -1.2306
2019/09/12 14:01:55.753, -3.2612,  2.0615, -1.2306
2019/09/12 14:01:55.755, -3.2612,  2.0615, -1.2306
2019/09/12 14:01:55.757, -3.2612,  2.0615, -1.2306
2019/09/12 14:01:55.758, -3.2612,  2.0615, -1.2306
2019/09/12 14:01:55.759, -3.2612,  2.0615, -1.2306
2019/09/12 14:01:55.760, -3.2612,  2.0615, -1.2306
2019/09/12 14:01:55.762, -3.2612,  2.0615, -1.2306
2019/09/12 14:01:55.764, -3.2612,  2.0615, -1.2306
2019/09/12 14:01:55.766, -2.4787,  2.8168,  3.6496
2019/09/12 14:01:55.767, -2.4787,  2.8168,  3.6496
2019/09/12 14:01:55.769, -2.4787,  2.8168,  3.6496
2019/09/12 14:01:55.772, -2.4787,  2.8168,  3.6496
2019/09/12 14:01:55.774, -2.4787,  2.8168,  3.6496
2019/09/12 14:01:55.775, -2.4787,  2.8168,  3.6496
2019/09/12 14:01:55.776, -2.4787,  2.8168,  3.6496
2019/09/12 14:01:55.778, -2.4787,  2.8168,  3.6496
2019/09/12 14:01:55.780, -2.4787,  2.8168,  3.6496
2019/09/12 14:01:55.782, -2.4787,  2.8168,  3.6496
2019/09/12 14:01:55.783, -2.4787,  2.8168,  3.6496
2019/09/12 14:01:55.785, -2.0352, -1.5021,  5.8150
2019/09/12 14:01:55.787, -2.0352, -1.5021,  5.8150
2019/09/12 14:01:55.790, -2.0352, -1.5021,  5.8150
2019/09/12 14:01:55.791, -2.0352, -1.5021,  5.8150
2019/09/12 14:01:55.793, -2.0352, -1.5021,  5.8150
2019/09/12 14:01:55.794, -2.0352, -1.5021,  5.8150
2019/09/12 14:01:55.796, -2.0352, -1.5021,  5.8150
2019/09/12 14:01:55.798, -2.0352, -1.5021,  5.8150
2019/09/12 14:01:55.800, -2.0352, -1.5021,  5.8150
2019/09/12 14:01:55.802, -2.0352, -1.5021,  5.8150
2019/09/12 14:01:55.803, -2.0352, -1.5021,  5.8150
2019/09/12 14:01:55.806,  0.2913, -3.2066,  5.6448
2019/09/12 14:01:55.808,  0.2913, -3.2066,  5.6448
2019/09/12 14:01:55.809,  0.2913, -3.2066,  5.6448
2019/09/12 14:01:55.811,  0.2913, -3.2066,  5.6448
2019/09/12 14:01:55.812,  0.2913, -3.2066,  5.6448
2019/09/12 14:01:55.814,  0.2913, -3.2066,  5.6448
2019/09/12 14:01:55.815,  0.2913, -3.2066,  5.6448
2019/09/12 14:01:55.817,  0.2913, -3.2066,  5.6448
2019/09/12 14:01:55.818,  0.2913, -3.2066,  5.6448
2019/09/12 14:01:55.819,  0.2913, -3.2066,  5.6448
2019/09/12 14:01:55.821,  0.2913, -3.2066,  5.6448
2019/09/12 14:01:55.823,  0.2913, -3.2066,  5.6448
2019/09/12 14:01:55.826,  0.8872, -2.5791,  3.4311
2019/09/12 14:01:55.827,  0.8872, -2.5791,  3.4311
2019/09/12 14:01:55.829,  0.8872, -2.5791,  3.4311
2019/09/12 14:01:55.831,  0.8872, -2.5791,  3.4311
2019/09/12 14:01:55.832,  0.8872, -2.5791,  3.4311
2019/09/12 14:01:55.834,  0.8872, -2.5791,  3.4311
2019/09/12 14:01:55.836,  0.8872, -2.5791,  3.4311
2019/09/12 14:01:55.837,  0.8872, -2.5791,  3.4311
2019/09/12 14:01:55.838,  0.8872, -2.5791,  3.4311
2019/09/12 14:01:55.840,  0.8872, -2.5791,  3.4311
2019/09/12 14:01:55.841,  0.8872, -2.5791,  3.4311
2019/09/12 14:01:55.843,  0.8872, -2.5791,  3.4311
2019/09/12 14:01:55.845, -0.0243, -0.6842, -0.2104
2019/09/12 14:01:55.847, -0.0243, -0.6842, -0.2104
2019/09/12 14:01:55.850, -0.0243, -0.6842, -0.2104
2019/09/12 14:01:55.851, -0.0243, -0.6842, -0.2104
2019/09/12 14:01:55.852, -0.0243, -0.6842, -0.2104
2019/09/12 14:01:55.853, -0.0243, -0.6842, -0.2104
2019/09/12 14:01:55.855, -0.0243, -0.6842, -0.2104
2019/09/12 14:01:55.857, -0.0243, -0.6842, -0.2104
2019/09/12 14:01:55.859, -0.0243, -0.6842, -0.2104
2019/09/12 14:01:55.860, -0.0243, -0.6842, -0.2104
2019/09/12 14:01:55.861, -0.0243, -0.6842, -0.2104
2019/09/12 14:01:55.863, -0.0243, -0.6842, -0.2104
2019/09/12 14:01:55.866, -1.1505,  0.4137, -0.1332
2019/09/12 14:01:55.868, -1.1505,  0.4137, -0.1332
2019/09/12 14:01:55.870, -1.1505,  0.4137, -0.1332
2019/09/12 14:01:55.872, -1.1505,  0.4137, -0.1332
2019/09/12 14:01:55.874, -1.1505,  0.4137, -0.1332
2019/09/12 14:01:55.876, -1.1505,  0.4137, -0.1332
2019/09/12 14:01:55.878, -1.1505,  0.4137, -0.1332
2019/09/12 14:01:55.880, -1.1505,  0.4137, -0.1332
2019/09/12 14:01:55.882, -1.1505,  0.4137, -0.1332
2019/09/12 14:01:55.884, -1.1505,  0.4137, -0.1332
2019/09/12 14:01:55.886, -1.6103,  0.7400, -0.5636
2019/09/12 14:01:55.888, -1.6103,  0.7400, -0.5636
2019/09/12 14:01:55.893, -1.6103,  0.7400, -0.5636
2019/09/12 14:01:55.895, -1.6103,  0.7400, -0.5636
2019/09/12 14:01:55.897, -1.6103,  0.7400, -0.5636
2019/09/12 14:01:55.898, -1.6103,  0.7400, -0.5636
2019/09/12 14:01:55.900, -1.6103,  0.7400, -0.5636
2019/09/12 14:01:55.901, -1.6103,  0.7400, -0.5636
2019/09/12 14:01:55.902, -1.6103,  0.7400, -0.5636
2019/09/12 14:01:55.904, -1.6103,  0.7400, -0.5636
2019/09/12 14:01:55.906, -1.0157,  0.9434, -0.8011
2019/09/12 14:01:55.908, -1.0157,  0.9434, -0.8011
2019/09/12 14:01:55.909, -1.0157,  0.9434, -0.8011
2019/09/12 14:01:55.910, -1.0157,  0.9434, -0.8011
2019/09/12 14:01:55.912, -1.0157,  0.9434, -0.8011
2019/09/12 14:01:55.914, -1.0157,  0.9434, -0.8011
2019/09/12 14:01:55.916, -1.0157,  0.9434, -0.8011
2019/09/12 14:01:55.918, -1.0157,  0.9434, -0.8011
2019/09/12 14:01:55.920, -1.0157,  0.9434, -0.8011
2019/09/12 14:01:55.925, -1.0157,  0.9434, -0.8011
2019/09/12 14:01:55.927, -0.5514,  0.1905, -0.2766
2019/09/12 14:01:55.931, -0.5514,  0.1905, -0.2766
2019/09/12 14:01:55.934, -0.5514,  0.1905, -0.2766
2019/09/12 14:01:55.936, -0.5514,  0.1905, -0.2766
2019/09/12 14:01:55.938, -0.5514,  0.1905, -0.2766
2019/09/12 14:01:55.946, -0.5514,  0.1905, -0.2766
2019/09/12 14:01:55.949, -0.0394, -0.5857, -0.4797
2019/09/12 14:01:55.951, -0.0394, -0.5857, -0.4797
2019/09/12 14:01:55.953, -0.0394, -0.5857, -0.4797
2019/09/12 14:01:55.955, -0.0394, -0.5857, -0.4797
2019/09/12 14:01:55.957, -0.0394, -0.5857, -0.4797
2019/09/12 14:01:55.959, -0.0394, -0.5857, -0.4797
2019/09/12 14:01:55.960, -0.0394, -0.5857, -0.4797
2019/09/12 14:01:55.962, -0.0394, -0.5857, -0.4797
2019/09/12 14:01:55.965,  0.6027, -0.5498, -1.2398
2019/09/12 14:01:55.985,  0.6027, -0.5498, -1.2398
2019/09/12 14:01:55.987,  0.3813, -0.3930, -1.6862
2019/09/12 14:01:55.991,  0.3813, -0.3930, -1.6862
2019/09/12 14:01:55.994,  0.3813, -0.3930, -1.6862
2019/09/12 14:01:55.995,  0.3813, -0.3930, -1.6862
2019/09/12 14:01:55.997,  0.3813, -0.3930, -1.6862
2019/09/12 14:01:55.999,  0.3813, -0.3930, -1.6862
2019/09/12 14:01:56.001,  0.3813, -0.3930, -1.6862
2019/09/12 14:01:56.003,  0.3813, -0.3930, -1.6862
2019/09/12 14:01:56.006, -0.0362, -0.1589, -1.0941
2019/09/12 14:01:56.008, -0.0362, -0.1589, -1.0941
2019/09/12 14:01:56.011, -0.0362, -0.1589, -1.0941
2019/09/12 14:01:56.013, -0.0362, -0.1589, -1.0941
2019/09/12 14:01:56.014, -0.0362, -0.1589, -1.0941
2019/09/12 14:01:56.015, -0.0362, -0.1589, -1.0941
2019/09/12 14:01:56.016, -0.0362, -0.1589, -1.0941
2019/09/12 14:01:56.017, -0.0362, -0.1589, -1.0941
2019/09/12 14:01:56.018, -0.0362, -0.1589, -1.0941
2019/09/12 14:01:56.019, -0.0362, -0.1589, -1.0941
2019/09/12 14:01:56.020, -0.0362, -0.1589, -1.0941
2019/09/12 14:01:56.021, -0.0362, -0.1589, -1.0941
2019/09/12 14:01:56.022, -0.0362, -0.1589, -1.0941
2019/09/12 14:01:56.023, -0.0362, -0.1589, -1.0941
2019/09/12 14:01:56.025, -0.7582,  0.0644,  0.0050
2019/09/12 14:01:56.026, -0.7582,  0.0644,  0.0050
2019/09/12 14:01:56.027, -0.7582,  0.0644,  0.0050
2019/09/12 14:01:56.030, -0.7582,  0.0644,  0.0050
2019/09/12 14:01:56.031, -0.7582,  0.0644,  0.0050
2019/09/12 14:01:56.032, -0.7582,  0.0644,  0.0050
2019/09/12 14:01:56.033, -0.7582,  0.0644,  0.0050
2019/09/12 14:01:56.035, -0.7582,  0.0644,  0.0050
2019/09/12 14:01:56.036, -0.7582,  0.0644,  0.0050
2019/09/12 14:01:56.037, -0.7582,  0.0644,  0.0050
2019/09/12 14:01:56.038, -0.7582,  0.0644,  0.0050
2019/09/12 14:01:56.041, -0.7582,  0.0644,  0.0050
2019/09/12 14:01:56.043, -0.7582,  0.0644,  0.0050
2019/09/12 14:01:56.044, -0.7582,  0.0644,  0.0050
2019/09/12 14:01:56.045, -1.3604,  0.1051,  0.9961
2019/09/12 14:01:56.047, -1.3604,  0.1051,  0.9961
2019/09/12 14:01:56.048, -1.3604,  0.1051,  0.9961
2019/09/12 14:01:56.052, -1.3604,  0.1051,  0.9961
2019/09/12 14:01:56.054, -1.3604,  0.1051,  0.9961
2019/09/12 14:01:56.055, -1.3604,  0.1051,  0.9961
