time[s], acc_x[m/s^2], acc_y[m/s^2], acc_z[m/s^2]
0.002, -1.95, 1.834, 1.691
0.031, -4.908, 1.785, 1.509
0.059, -5.616, 0.74, 0.693
0.088, -6.909, -5.242, -6.598
0.119, -0.104, -1.453, -0.137
0.148, 1.643, 3.346, -2.646
0.177, -0.085, 2.523, -2.153
0.204, -2.388, -2.421, -2.046
0.234, -1.797, -1.714, -0.745
0.263, 2.09, -0.375, -0.03
0.292, 3.153, -0.1, 0.227
0.322, 3.411, -0.491, 0.387
0.352, 2.633, -0.887, 0.93
0.381, 3.32, -0.634, 0.697
0.412, 2.416, -0.811, -0.026
0.44, 0.878, -1.424, 0.323
0.47, 0.618, 0.629, 2.133
0.499, 0.61, -0.161, 2.883
0.527, -5.578, 0.229, 2.288
0.557, -6.524, 1.377, 3.072
0.587, -4.784, 6.562, -3.927
0.617, 0.476, -0.679, -2.986
0.647, 1.578, -4.218, -3.992
0.676, -0.118, -3.296, -4.158
0.704, -2.402, 0.914, -0.615
0.732, -1.3, 0.734, 0.335
0.76, 0.582, 0.491, 0.591
0.793, 5.363, 0.815, 1.589
0.827, 4.789, 0.297, 1.215
0.862, 5.207, 1.056, 1.03
0.893, 3.867, 0.098, 1.316
0.921, 2.124, -0.146, 1.393
0.95, -0.824, 0.264, 1.241
0.977, -1.709, 0.641, 1.805
1.005, -7.282, 0.352, 1.822
1.035, -5.381, 0.012, 1.937
1.062, -3.216, -6.789, -3.246
1.092, 2.103, 0.885, -2.839
1.119, 4.35, 1.67, -0.805
1.148, -2.142, 1.084, -2.832
1.177, -0.6, -1.468, -2.544
1.204, 1.042, -1.029, -0.842
1.232, 2.177, -1.019, 0.126
1.262, 4.063, -0.073, 0.929
1.289, 4.411, -0.628, 0.844
1.315, 3.665, -1.35, 1.095
1.351, 3.395, -0.785, 0.749
1.378, 2.582, -1.18, 0.39
1.406, -0.877, -0.23, 1.676
1.435, -0.9, 0.816, 2.566
1.466, -3.668, -1.209, 2.873
1.502, -6.344, -0.691, 3.017
1.528, -5.756, 2.804, -3.4
1.559, -2.056, 6.245, -4.596
1.588, 2.342, -4.495, -4.053
1.617, -0.284, -3.701, -5.296
1.647, -2.716, 1.773, -1.893
1.675, -2.776, 0.099, -0.779
1.703, 0.033, 0.448, 0.717
1.734, 3.484, 0.786, 1.202
1.763, 5.279, 0.847, 2.021
1.792, 5.871, 0.399, 1.407
1.82, 6.646, 0.67, 1.14
1.853, 4.361, 0.389, 1.028
1.885, 0.333, 0.29, 1.533
1.916, -0.923, -0.191, 1.324
1.946, -6.63, 1.125, 2.113
1.974, -8.345, 0.499, 2.401
2.003, -10.267, -2.282, -9.084
2.037, -3.685, -8.707, -4.205
2.066, 5.678, 1.588, 1.462
2.093, 2.196, 6.503, -2.833
2.121, 0.564, 2.729, -2.517
2.154, -1.165, -3.873, -1.98
2.183, 1.552, 0.091, 0.217
2.212, 3.113, 1.613, 0.578
2.241, 4.891, -0.548, 0.357
2.27, 3.132, -2.168, 0.504
2.302, 2.454, -1.315, 0.555
2.334, 2.515, -1.066, 0.998
2.362, -1.02, 0.775, 2.402
2.39, -0.918, 2.076, 3.288
2.422, -3.33, -2.279, 2.083
2.453, -5.641, -3.025, 2.339
2.485, -4.634, 0.744, -0.545
2.517, -4.017, 3.32, -7.302
2.549, 2.259, -3.11, -3.047
2.58, 0.038, -2.881, -4.348
2.613, -1.729, -2.175, -2.112
2.644, -1.079, 0.16, 0.151
2.675, 0.378, 0.313, 0.483
2.702, 6.027, 1.186, 1.321
2.729, 6.098, 1.45, 2.07
2.755, 4.559, 0.066, 1.484
2.782, 5.088, -0.532, 1.189
2.81, 4.165, 0.199, 1.379
2.842, 1.727, 0.373, 1.221
2.87, -2.076, 0.501, 1.777
2.897, -3.813, 1.711, 2.186
2.923, -6.724, 0.05, 3.112
2.951, -4.908, -0.49, 3.399
2.978, -8.438, -1.341, -5.616
3.008, 4.147, -2.055, -2.701
3.039, 3.887, 0.456, -0.749
3.066, -1.85, 1.282, -2.524
3.093, -1.173, -1.204, -2.246
3.121, -0.106, -0.521, -1.312
3.15, 2.841, -0.961, 0.075
3.176, 3.909, -0.233, 0.879
3.202, 4.145, -1.035, 0.92
3.228, 3.397, -1.561, 0.815
3.261, 2.751, -1.129, 0.971
3.292, 1.941, -0.674, 0.516
3.319, 0.523, -0.277, 1.369
3.35, -1.101, 2.392, 2.355
3.383, -2.68, -1.981, 1.21
3.417, -5.142, -1.53, 2.211
3.448, -6.206, 2.652, -2.918
3.478, -3.722, 4.331, -2.87
3.509, 2.427, -5.303, -4.314
3.538, 0.385, -3.06, -4.155
3.565, -2.595, 1.58, -0.995
3.596, -2.766, -0.682, -0.759
3.626, 1.309, -0.338, 0.342
3.654, 3.938, 0.063, 1.077
3.682, 4.176, 0.111, 1.887
3.713, 4.837, -0.115, 1.508
3.742, 5.607, -0.356, 1.622
3.773, 4.517, 0.092, 1.168
3.799, 1.856, 0.192, 0.555
3.828, -0.605, 0.105, 0.896
3.857, -2.879, 1.756, 1.583
3.883, -7.88, 0.949, 2.5
3.914, -7.859, 0.522, -0.038
3.942, -1.664, -6.934, 0.842
3.973, 1.888, 1.861, -1.071
4.004, 0.903, 1.199, -3.821
4.036, -0.791, -2.735, -3.542
4.068, 0.748, -1.004, -1.503
4.101, 2.362, 1.393, 0.067
4.135, 3.473, -0.354, 1.276
4.169, 3.933, -1.324, 1.71
4.199, 3.855, -0.451, 1.676
4.225, 3.048, -0.427, 0.953
4.254, 2.046, -1.411, 0.853
4.285, -0.735, -0.704, 0.64
4.317, -2.249, 0.331, 1.387
4.35, -1.993, -1.319, 1.888
4.379, -2.998, -1.818, 2.393
4.408, -3.431, 0.86, 1.345
4.44, -3.439, 0.459, -4.673
4.47, 1.388, 0.815, -2.364
4.497, 1.056, -1.932, -2.932
4.524, -1.053, -2.228, -3.229
4.553, -0.948, -0.632, -1.626
4.583, -1.068, -0.306, 0.029
4.61, 1.042, -0.065, 0.78
4.638, 3.461, 0.097, 1.459
4.669, 4.826, 1.127, 2.297
4.7, 4.353, 0.046, 1.887
4.728, 3.949, 0.157, 1.186
4.759, 2.685, 0.228, 0.82
4.79, -0.966, 0.311, 0.61
4.821, -2.074, 0.518, 1.369
4.852, -5.691, 1.463, 1.914
4.88, -6.768, 0.405, 2.068
4.91, -7.544, -3.161, -6.4
4.942, -1.647, -5.385, -2.161
4.974, 1.812, 3.298, -2.746
5.002, -2.124, -1.653, -2.701
5.03, 0.26, -2.243, -1.365
5.059, 1.909, 0.064, -0.6
5.089, 2.474, -0.394, 0.975
5.118, 3.058, -0.695, 1.394
5.146, 4.173, -0.951, 1.253
5.174, 4.009, -0.791, 1.488
5.202, 2.862, -0.129, 0.978
5.229, 1.679, -1.028, 0.3
5.258, -0.04, -1.746, 0.417
5.289, -2.107, 0.701, 2.346
5.318, -1.698, 0.506, 2.054
5.349, -4.57, -1.63, 2.727
5.38, -5.365, -0.054, 3.123
5.412, -2.81, 5.431, -4.86
5.442, 1.714, -2.527, -2.788
5.469, 0.789, -1.273, -3.131
5.497, -0.383, -0.845, -3.535
5.526, -1.339, -0.877, -1.52
5.555, -2.265, -1.079, -0.588
5.582, 1.602, 0.338, 1.053
5.609, 3.392, 0.696, 1.585
5.639, 5.001, 1.097, 2.454
5.667, 4.326, -0.111, 2.323
5.694, 3.351, -0.344, 1.736
5.722, 2.017, 0.225, 0.572
5.75, 0.982, 0.424, 0.472
5.781, 0.347, 0.16, 1.191
5.813, -3.35, 1.152, 1.775
5.848, -5.739, 1.666, 1.012
5.881, -7.055, -1.244, -3.479
5.915, 0.947, -1.002, -0.107
5.949, -0.425, 1.978, -3.894
5.982, 0.609, -2.708, -2.205
6.015, 2.542, -0.732, -0.996
6.049, 1.213, -0.568, 0.446
6.081, 2.076, -0.824, 1.119
6.108, 4.22, -0.83, 1.537
6.138, 4.667, -0.233, 1.162
6.168, 2.786, -0.558, 0.813
6.201, 1.765, -1.239, 0.56
6.231, -0.463, -0.954, 0.61
6.26, -1.354, -0.196, 1.104
6.288, -1.794, -0.654, 2.728
6.319, -2.951, -2.3, 2.954
6.352, -5.042, 1.638, -2.114
6.383, -0.868, 1.735, -1.491
6.412, 0.816, -4.325, -2.483
6.44, 0.698, -4.816, -3.4
6.469, -0.828, 1.441, -1.52
6.5, -1.218, 1.86, -0.417
6.528, -1.041, -0.725, -0.364
6.557, 0.589, -0.57, 0.094
6.585, 3.892, 1.192, 1.49
6.617, 4.141, 0.656, 1.198
6.645, 5.498, -0.404, 1.235
6.673, 4.085, 0.194, 0.853
6.701, 2.202, 0.778, 1.023
6.729, -1.131, -0.865, 0.805
6.756, -1.317, -0.724, 1.147
6.785, -4.435, 1.743, 1.96
6.814, -6.286, 0.872, 2.126
6.842, -6.48, -1.842, -3.32
6.869, -4.413, -4.706, -4.419
6.901, 3.242, 1.755, -1.237
6.928, -1.289, 0.718, -3.055
6.96, -1.879, -1.407, -2.77
6.991, 1.597, 0.11, -0.73
7.023, 2.127, -0.406, 1.032
7.056, 3.17, -0.094, 1.525
7.089, 4.946, -0.89, 1.313
7.123, 4.195, -1.075, 1.109
7.16, 2.025, -0.054, 1.301
7.191, 0.293, -0.854, 1.095
7.22, -0.951, -0.406, 1.863
7.247, -2.239, -0.495, 1.759
7.274, -3.576, -1.969, 2.111
7.303, -5.096, -1.134, 2.137
7.333, -5.162, 2.369, -3.364
7.362, 1.12, -0.631, -1.152
7.389, 1.622, -3.792, -3.208
7.417, 0.563, -2.313, -4.301
7.445, -2.579, 1.461, -2.254
7.474, -2.038, -0.283, -1.205
7.504, -0.566, -0.425, 0.27
7.532, 2.737, -0.103, 1.033
7.562, 5.762, 0.541, 2.233
7.592, 5.983, 0.151, 1.793
7.619, 6.34, 0.172, 1.244
7.647, 4.005, 0.35, 0.996
7.674, 1.675, 0.882, 0.788
7.702, -0.988, 0.537, 0.613
7.729, -1.388, 0.036, 1.625
7.762, -6.434, 2.771, 1.996
7.792, -7.565, 2.244, 2.481
7.819, -6.368, 0.317, 1.482
7.848, 1.724, -2.942, 0.593
7.877, 3.965, 2.452, -1.5
7.904, -0.418, 1.474, -2.453
7.933, -1.203, -2.13, -2.335
7.962, 1.393, -1.506, -1.289
7.99, 1.081, -0.04, -0.292
8.019, 1.129, -0.07, 0.26
8.049, 2.639, -1.205, 0.762
8.077, 3.202, -1.406, 0.967
8.106, 3.715, -0.089, 1.47
8.134, 3.449, 0.156, 1.646
8.166, 1.006, -1.316, 1.08
8.2, 0.666, -1.296, 0.575
8.232, 0.031, 0.037, 1.39
8.264, -1.39, -0.936, 1.959
8.293, -3.721, -1.64, 2.155
8.321, -5.888, -0.97, 2.572
8.351, -6.33, 3.384, -3.976
8.381, -1.788, 2.202, -2.281
8.41, 0.84, -2.31, -2.433
8.436, 1.762, -1.012, -2.812
8.464, -0.134, 0.61, -1.298
8.493, -2.571, -0.825, -1.074
8.521, -1.78, -1.028, -0.367
8.55, 1.804, 0.283, 1.259
8.58, 3.291, 0.926, 1.488
8.608, 4.059, 0.267, 1.723
8.641, 4.563, 0.001, 1.633
8.669, 3.81, 0.17, 1.485
8.7, 2.481, 0.34, 0.889
8.731, -0.296, 0.01, 0.667
8.758, -0.778, 0.79, 1.102
8.788, -5.382, 2.567, 1.885
8.817, -5.855, 1.344, 2.224
8.845, -7.165, -2.629, -3.962
8.872, -2.84, -4.147, -3.555
8.899, 2.747, 0.635, -2.388
8.926, 0.155, 1.594, -2.051
8.953, -0.837, 0.778, -2.08
8.982, 1.09, -1.605, -1.233
9.012, 0.269, -0.91, -0.678
9.039, 0.794, -0.877, -0.104
9.068, 2.956, -0.618, 0.71
9.097, 3.38, -0.697, 0.743
9.122, 3.295, -0.581, 0.746
9.153, 2.661, -0.233, 1.222
9.18, 2.073, -0.303, 0.842
9.206, 0.393, -0.811, 1.05
9.235, -0.56, -0.165, 1.249
9.264, -0.624, 0.085, 1.878
9.291, -1.397, -1.464, 1.976
9.317, -3.484, -1.65, 2.137
9.344, -4.808, 1.546, 1.168
9.369, -5.6, 1.802, -4.502
9.395, -0.6, 1.347, -3.331
9.421, 1.476, -2.094, -3.691
9.45, 0.574, -1.422, -2.604
9.479, 0.083, -1.638, -1.786
9.508, -1.972, -0.536, -0.472
9.542, 1.588, -0.57, 0.464
9.576, 3.971, 0.495, 1.362
9.61, 3.476, 0.477, 1.83
9.644, 4.397, -1.049, 1.594
9.673, 3.692, -0.824, 1.128
9.701, 1.758, 1.258, 0.497
9.73, 0.04, -0.532, 0.701
9.759, -1.292, -2.02, 0.555
9.788, -2.215, 3.362, 2.261
9.817, -3.862, 5.535, 2.49
9.846, -6.692, -1.022, -2.229
9.876, -9.035, -7.048, -7.491
9.906, 2.786, 2.686, 0.713
9.933, 2.972, 6.308, -3.368
9.962, 0.521, 1.354, -2.196
9.993, -1.18, -3.7, -1.756
10.022, 1.797, 0.062, -0.758
10.05, 2.093, -0.426, 0.413
10.08, 2.587, -0.693, 0.838
10.112, 3.182, -1.071, 0.876
10.144, 3.675, -0.527, 1.006
10.172, 2.9, -0.638, 1.012
10.199, 1.79, -0.944, 1.135
10.229, -0.698, -0.808, 1.356
10.257, -0.844, 0.175, 1.642
10.283, -0.323, -0.842, 1.674
10.311, -3.911, -3.175, 1.438
10.341, -4.826, -1.196, 2.374
10.369, -4.201, 4.119, -4.771
10.399, -1.03, 3.454, -2.755
10.429, 1.102, -4.526, -3.041
10.463, -0.201, -1.658, -3.085
10.49, -0.554, 1.877, -1.434
10.519, -1.751, 1.869, -0.66
10.549, -1.605, -1.168, 0.228
10.579, 1.322, -0.091, 0.557
10.608, 3.209, 0.559, 1.323
10.637, 4.11, 0.38, 1.266
10.666, 4.25, -0.447, 1.367
10.695, 3.264, -0.611, 1.271
10.723, 3.005, -0.766, 1.256
10.751, 1.773, -0.498, 1.135
10.781, 0.017, 0.136, 1.036
10.811, -3.544, 1.621, 0.881
10.842, -4.948, 1.438, 1.97
10.869, -6.544, 0.965, 0.444
10.899, -8.945, -2.607, -6.629
10.929, 2.078, 2.883, 0.025
10.96, 0.107, 3.507, -2.371
10.992, 0.322, -2.16, -2.837
11.023, 0.609, -1.199, -1.654
11.054, 1.575, 0.289, -0.924
11.088, 1.609, -0.249, -0.064
11.119, 2.396, -1.009, 0.251
11.15, 2.837, -0.556, 0.951
11.179, 3.477, 0.108, 0.914
11.208, 2.676, 0.146, 1.241
11.239, 1.726, -0.103, 1.269
11.271, 1.303, 0.119, 1.333
11.302, 0.669, 0.264, 1.117
11.329, -1.107, -1.008, 0.921
11.356, -1.165, -2.228, 0.35
11.384, -3.438, -1.353, 1.394
11.412, -4.656, 0.456, 2.782
11.44, -5.619, 1.151, 2.703
11.469, -1.766, 3.447, -1.025
11.5, -0.008, -1.939, -1.108
11.529, 1.396, -0.292, -3.13
11.558, 1.318, 0.01, -2.49
11.591, -0.959, 0.101, -1.554
11.625, -0.451, -0.619, -0.685
11.661, 0.794, 0.363, 0.012
11.69, 3.488, 0.815, 1.083
11.72, 3.75, 0.487, 1.348
11.749, 4.106, -0.162, 1.452
11.778, 4.053, 0.02, 1.596
11.808, 2.414, 0.005, 1.462
11.835, 1.95, -0.378, 1.246
11.862, -0.228, 0.313, 0.904
11.889, -1.53, 0.984, 1.259
11.917, -3.093, 1.512, 1.602
11.949, -5.112, 2.111, 2.56
11.98, -4.84, 0.449, 4.198
12.012, -5.841, -3.687, -9.738
12.046, 1.502, 0.881, -2.16
12.078, 0.225, 3.912, -2.334
12.106, -1.072, 0.281, -2.67
12.134, 0.212, -2.317, -1.951
12.162, 0.419, -0.049, 0.277
12.19, 1.851, 0.261, 1.054
12.217, 2.218, 0.248, 1.185
12.248, 3.278, -0.353, 0.915
12.28, 3.791, -0.225, 1.02
12.313, 3.978, 0.464, 1.462
12.348, 1.74, -1.55, 0.155
12.38, 0.439, -2.076, -0.111
12.413, -0.305, 0.024, 1.666
12.446, -3.099, -0.457, 1.348
12.479, -5.098, -0.877, 0.891
12.513, -4.069, -0.65, 1.687
12.546, 0.532, 4.29, -3.793
12.579, 2.189, 1.398, -2.072
12.614, 0.921, 0.088, -1.771
12.644, -1.806, -2.93, -2.426
12.675, -2.806, -0.882, -1.515
12.701, -1.655, -0.264, -0.443
12.727, 1.962, -0.173, 0.718
12.754, 3.374, 0.384, 1.06
12.782, 3.568, 0.314, 1.604
12.813, 3.789, -0.161, 1.322
12.842, 4.237, -0.443, 0.943
12.869, 2.712, -0.748, 0.972
12.899, 1.145, -0.286, 0.822
12.929, -0.815, 0.372, 0.627
12.958, -1.386, 0.866, 0.988
12.985, -5.446, 1.06, 2.642
13.016, -6.777, 0.836, 2.718
13.047, -6.619, -4.397, -5.411
13.075, 0.358, -3.008, -0.551
13.103, 0.819, 1.434, -2.865
13.134, 0.03, -0.414, -2.263
13.165, 0.764, -1.627, -1.688
13.194, 0.564, -0.476, -0.935
13.222, 2.035, -0.45, 0.659
13.253, 2.793, -0.101, 0.883
13.284, 3.346, -0.446, 1.098
13.314, 3.585, -0.53, 1.074
13.347, 2.867, -0.36, 1.057
13.375, 2.065, -0.931, 0.936
13.403, -0.067, -0.728, 1.259
13.433, -1.003, 0.472, 1.689
13.461, -0.857, 0.63, 1.662
13.489, -3.419, -1.134, 1.985
13.518, -4.607, -0.914, 2.025
13.548, -5.489, 1.686, -2.997
13.577, -3.274, 3.86, -3.348
13.604, 1.756, -2.764, -2.171
13.635, 1.725, -2.869, -3.161
13.663, -1.621, 0.705, -1.934
13.694, -2.391, 0.977, -0.633
13.722, 0.263, -0.244, -0.148
13.753, 2.368, 0.265, 0.972
13.781, 3.93, 1.094, 1.546
13.811, 3.76, 0.56, 1.771
13.843, 4.356, -0.368, 1.636
13.875, 3.276, -0.44, 1.135
13.904, 1.383, -0.762, 1.494
13.935, 1.121, -0.632, 1.091
13.962, 0.115, 2.945, 1.289
13.989, -2.639, 4.014, 1.283
14.02, -5.294, 2.629, 2.399
14.05, -9.098, -1.564, -5.011
14.079, -4.868, -6.486, -3.75
14.106, 0.88, 3.705, -2.795
14.135, -0.414, 1.862, -3.318
14.165, -0.275, -2.244, -2.513
14.194, 1.777, -2.077, -1.517
14.224, 1.623, 0.292, 0.079
14.256, 1.961, -0.624, 0.375
14.284, 2.942, -1.154, 0.928
14.312, 3.417, -0.602, 1.182
14.347, 3.272, -0.454, 1.117
14.376, 2.272, -0.674, 1.164
14.409, 0.856, -0.356, 1.386
14.435, 0.034, -0.008, 1.144
14.462, -0.322, -0.081, 1.26
14.492, -0.45, -1.412, 1.046
14.519, -2.621, -1.534, 1.88
14.548, -5.707, 0.971, 2.717
14.576, -5.358, 0.694, 0.535
14.605, -0.186, 1.092, -2.164
14.634, 0.539, -2.097, -3.219
14.662, 0.057, -0.08, -3.113
14.693, -1.4, 0.855, -2.235
14.72, -2.17, -0.29, -0.944
14.748, -1.013, -0.383, 0.161
14.78, 1.004, 0.512, -0.005
14.811, 4.202, 1.423, 0.917
14.837, 4.307, 0.598, 1.098
14.862, 5.345, 0.156, 1.437
14.893, 4.588, 0.484, 1.402
14.925, 2.391, -0.169, 1.207
14.956, 1.488, -0.494, 1.034
14.988, -0.4, 1.027, 1.253
15.023, -5.987, 2.0, 2.056
15.057, -6.75, 0.907, 2.782
15.088, -7.596, -1.533, -4.331
15.12, -3.707, -5.059, -4.654
15.151, 2.223, 2.557, -0.592
15.184, -0.684, 0.655, -2.903
15.217, -0.109, -1.508, -2.667
15.251, 0.649, -0.336, -1.115
15.283, 1.67, -0.476, 0.497
15.317, 1.835, -0.729, 0.415
15.351, 3.369, -0.919, 0.771
15.385, 3.543, -0.17, 1.109
15.418, 2.909, -0.469, 1.186
15.452, 1.034, -0.536, 1.091
15.484, 0.162, 0.162, 1.187
15.519, 1.107, 0.9, 0.827
15.552, -0.834, -1.884, 1.213
15.585, -7.269, 0.787, 2.425
15.623, -3.954, 4.308, -3.162
15.658, -0.538, -1.606, -1.845
15.684, 1.237, -2.303, -2.162
15.714, 2.353, -2.236, -2.86
15.742, -1.081, 1.642, -1.688
15.769, -1.625, 0.213, -1.124
15.798, -1.483, -1.071, -0.627
15.827, 0.808, 0.433, 0.589
15.856, 2.164, 0.716, 1.072
15.886, 4.652, 0.844, 1.489
15.916, 4.187, 0.137, 1.572
15.945, 4.103, 0.36, 1.612
15.973, 3.381, 0.297, 1.404
16.002, 1.514, -0.712, 1.108
16.029, 0.545, -0.1, 0.921
16.056, -0.547, 1.272, 1.112
16.086, -4.912, 1.983, 2.18
16.114, -5.691, 0.806, 1.976
16.142, -5.986, 0.7, 1.311
16.172, -7.093, -2.654, -7.513
16.202, 1.522, 1.446, -2.056
16.23, 0.103, 2.09, -2.286
16.258, -1.199, 1.4, -2.661
16.289, 0.299, -0.987, -2.326
16.32, -0.172, -0.226, -1.621
16.349, 1.567, -0.726, 0.115
16.38, 2.323, -0.367, 0.195
16.409, 3.227, -0.578, 0.715
16.44, 3.409, -0.687, 0.765
16.469, 3.546, 0.292, 1.506
16.496, 3.157, 0.264, 0.439
16.525, 0.113, -2.57, 0.693
16.556, -0.438, 0.605, 2.416
16.583, 1.408, 0.907, 3.027
16.61, -1.64, -1.038, 2.54
16.642, -7.926, -1.421, 2.07
16.669, -5.84, 1.271, -0.583
16.696, -3.054, 6.368, -3.304
16.723, -0.529, -4.292, -3.413
16.752, -0.313, -3.948, -3.839
16.78, 1.258, -2.266, -4.499
16.808, -0.808, 1.254, -2.031
16.842, -2.034, -0.646, -0.252
16.874, -0.378, 0.065, 0.049
16.905, 2.663, 0.406, 0.937
16.938, 3.647, 0.637, 1.537
16.969, 4.548, 0.02, 1.161
17.0, 4.699, -0.116, 1.215
17.034, 2.971, 0.365, 1.416
17.065, 1.764, 0.383, 1.149
17.098, 1.161, 0.084, 1.092
17.136, -0.319, 1.317, 1.98
17.168, -5.319, 2.401, 1.568
17.199, -3.893, 1.06, 3.338
17.232, -5.068, -3.678, -5.344
17.266, 2.265, 1.303, -2.204
17.3, 0.502, 2.153, -3.081
17.335, -1.077, 0.063, -3.081
17.363, -1.371, -1.939, -1.849
17.392, -0.909, -1.341, -0.659
17.421, -0.077, -0.808, 0.374
17.449, 2.125, -0.017, 1.127
17.479, 3.539, -0.304, 0.894
17.508, 3.413, -0.16, 1.19
17.537, 3.205, 0.529, 1.387
17.564, 2.31, 0.249, 1.178
17.592, 1.068, 0.16, 0.894
17.619, 0.49, 0.337, 1.37
17.65, 1.251, 1.58, 3.303
17.679, 1.019, 0.258, 3.126
17.707, -2.235, -1.065, 0.847
17.735, -3.756, -0.816, -0.655
17.766, -2.717, 4.237, -4.039
17.795, -2.653, -5.773, -2.579
17.823, -0.434, -6.951, -5.376
17.853, 1.556, 1.514, -3.552
17.883, -1.66, 2.561, -0.1
17.91, -1.229, -2.04, -0.568
17.939, 0.184, -0.451, -0.263
17.969, 3.416, 1.172, 1.604
18.0, 2.194, 0.716, 1.688
18.028, 4.522, 0.507, 1.434
18.057, 5.148, 1.324, 1.448
18.085, 2.021, 1.985, 1.566
18.116, 2.517, 0.722, 1.444
18.144, 2.052, -0.103, 1.031
18.17, 1.027, 0.182, 1.973
18.2, -0.915, 1.175, 2.128
18.226, -5.169, 2.999, 1.941
18.256, -7.036, 3.065, 1.986
18.287, -5.666, 1.279, -0.336
18.316, -5.885, -1.807, -6.438
18.349, -0.681, -3.237, -2.144
18.379, 2.801, 2.188, 0.158
18.407, -0.65, -4.65, -3.54
18.436, -2.48, -4.536, -3.635
18.463, 1.5, -1.962, -1.552
18.492, 0.817, -0.506, -0.792
18.522, -0.003, -0.68, 0.529
18.551, 1.326, -0.703, 0.758
18.58, 2.929, -0.508, 0.922
18.608, 4.493, -0.368, 1.325
18.64, 4.344, -0.369, 1.594
18.669, 2.16, -1.122, 1.871
18.698, 1.096, -1.462, 1.675
18.725, 2.066, -0.675, 1.367
18.756, 1.73, -0.443, 1.72
18.784, 0.738, -0.814, 1.946
18.813, -0.577, -1.801, 1.513
18.842, -2.439, -2.343, 1.143
18.873, -2.933, -0.298, 2.866
18.902, -4.427, 4.829, -3.369
18.929, -2.981, 2.966, -2.384
18.959, -0.675, -2.38, -3.698
18.989, 0.336, -1.143, -4.473
19.017, -0.849, -2.531, -2.128
19.046, -1.664, 1.905, 0.01
19.077, -0.741, 1.274, 0.273
19.107, 1.846, 0.616, 0.386
19.135, 3.43, 0.476, 0.647
19.166, 3.672, -0.01, 0.815
19.194, 4.064, -0.4, 0.627
19.224, 3.378, -0.741, 0.873
19.252, 2.682, 0.132, 0.798
19.28, 1.882, 0.608, 0.851
19.309, 0.644, -0.429, 2.088
19.34, 0.03, -0.26, 1.951
19.369, -3.267, 1.126, 1.953
19.399, -5.062, 1.065, 1.227
19.427, -6.324, -0.013, -4.566
19.459, -4.277, -3.681, -3.398
19.486, 1.734, 0.344, -0.721
19.515, 1.233, 2.468, -2.079
19.546, -0.927, -0.368, -1.892
19.574, -1.359, -2.124, -1.785
19.603, -0.077, -2.228, -0.449
19.63, 2.421, -0.882, 0.518
19.662, 2.965, -0.933, 0.811
19.688, 2.874, -1.229, 0.793
19.715, 3.163, -0.842, 1.054
19.744, 3.05, -0.165, 1.289
19.771, 2.096, -0.477, 1.332
19.797, 0.778, -0.479, 1.458
19.826, 0.169, 0.058, 2.328
19.854, 0.629, -0.412, 2.74
19.883, -1.724, -2.321, 1.973
19.913, -3.208, -1.119, 2.484
19.941, -3.542, 1.683, -0.043
19.969, -2.211, -2.562, -3.042
19.999, -1.151, -5.878, -4.374
20.03, -0.048, -2.608, -3.857
20.058, -1.422, 1.689, -1.98
20.085, -1.409, 2.059, -0.274
20.116, -0.479, 0.612, 0.2
20.145, 2.424, 0.69, 0.914
20.172, 3.923, 0.265, 0.788
20.202, 4.861, -0.359, 1.024
20.232, 4.858, 0.02, 1.274
20.259, 3.455, -0.281, 1.46
20.289, 2.175, 0.416, 1.453
20.322, 1.345, 0.847, 1.626
20.353, 0.172, 0.571, 2.104
20.382, -2.993, 1.54, 1.957
20.408, -5.023, 1.991, 0.814
20.436, -3.899, 0.696, 1.809
20.463, -5.868, -4.265, -5.939
20.49, -1.892, -1.456, -3.261
20.518, 2.65, 0.187, -0.286
20.55, -0.521, 3.446, -1.91
20.576, -1.279, -1.665, -2.535
20.609, -1.268, -3.001, -0.783
20.636, 0.377, -1.984, -0.475
20.665, 3.029, -0.78, 0.232
20.693, 3.634, -0.904, 0.562
20.72, 3.221, -0.828, 0.383
20.747, 3.266, -0.026, 0.906
20.775, 3.368, -0.022, 0.859
20.803, 1.678, -0.272, 1.205
20.832, 1.124, 0.277, 1.676
20.86, 1.127, 0.622, 2.399
20.889, -1.519, -1.977, 1.762
20.915, -3.289, -0.591, 1.888
20.949, -3.595, 1.85, 0.94
20.978, -5.621, 3.248, -3.133
21.008, 1.767, -3.758, -4.482
21.037, 1.91, -2.957, -5.883
21.064, -2.9, -1.33, -2.742
21.091, -4.591, 0.266, -1.625
21.118, -4.526, 1.239, -0.398
21.146, 0.259, 1.07, 0.226
21.175, 3.456, 0.626, 0.514
21.206, 4.294, -1.033, 0.414
21.234, 4.661, -0.471, 0.599
21.262, 3.353, -0.44, 1.478
21.292, 2.836, -0.111, 1.475
21.319, 2.224, 0.244, 1.375
21.349, 1.132, 0.616, 2.073
21.378, 0.797, 0.35, 2.977
21.406, -3.427, 2.038, 1.366
21.438, -5.544, 1.076, 0.643
21.469, -9.713, -3.566, -7.111
21.502, 3.674, 2.643, 0.163
21.533, 2.493, 4.954, -1.497
21.567, -2.011, -1.418, -2.485
21.601, -2.743, -4.465, -2.566
21.633, -0.243, -1.803, -0.024
21.666, 2.736, -0.509, 0.722
21.695, 4.019, -1.286, 0.448
21.725, 3.498, -1.873, 0.518
21.753, 3.452, -0.708, 1.008
21.782, 3.144, -0.138, 1.219
21.812, 1.236, -0.82, 1.848
21.842, -0.51, 0.135, 2.626
21.869, 0.421, 0.193, 2.423
21.897, 0.032, -2.143, 0.933
21.927, -3.445, -1.427, 2.579
21.956, -3.543, 1.775, 1.594
21.984, -5.925, 6.939, -3.101
22.014, -0.924, -4.875, -3.654
22.046, 0.868, -6.051, -5.345
22.074, -0.677, -1.838, -3.708
22.103, -3.249, 2.256, 0.136
22.136, -1.464, -0.317, 0.563
22.17, 4.006, 0.772, 0.499
22.202, 5.129, 0.075, 1.591
22.233, 4.796, 0.056, 1.224
22.263, 4.131, 0.097, 1.526
22.292, 3.486, 0.057, 1.339
22.321, 2.453, 0.39, 1.365
22.354, 1.313, 0.3, 1.89
22.385, -0.607, 1.327, 1.73
22.415, -4.971, 2.004, 0.48
22.444, -6.178, -0.192, -1.732
22.474, -7.011, -9.543, -6.193
22.502, 1.838, 5.506, -0.56
22.533, -1.011, 8.01, -2.877
22.561, -1.073, 2.23, -2.235
22.592, -2.003, -3.066, -1.368
22.619, -0.258, -2.8, -1.036
22.652, 2.378, -0.919, 0.343
22.679, 4.527, -1.416, 0.503
22.706, 4.074, -1.649, 0.551
22.732, 3.446, -0.909, 0.738
22.758, 2.989, -0.093, 1.433
22.789, 2.098, 0.092, 1.51
22.82, 0.694, 0.082, 1.976
22.851, -0.116, -0.432, 2.993
22.879, -0.85, -1.616, 1.653
22.909, -2.973, 0.067, 1.787
22.942, -3.267, 4.12, -2.362
22.973, -2.37, -0.07, -4.151
23.002, -1.744, -8.142, -6.321
23.03, -0.907, -4.69, -4.003
23.06, -2.74, 3.383, -1.073
23.089, -1.919, 2.482, 0.191
23.121, 0.379, 1.208, -0.312
23.15, 4.179, 0.424, 0.499
23.181, 4.339, -0.522, 1.02
23.208, 4.909, -0.107, 0.664
23.241, 4.878, -0.334, 0.961
23.268, 2.768, 1.615, 0.624
23.295, 1.632, 1.76, 1.267
23.324, 0.079, -0.805, 2.585
23.353, 0.243, -0.404, 2.473
23.381, -2.424, 1.418, 1.766
23.412, -3.452, 0.368, 1.784
23.446, -5.649, -6.777, -7.109
23.48, -2.371, -1.893, -3.646
23.514, -0.259, 2.816, -2.758
23.549, -0.568, 0.429, -1.494
23.581, -2.193, -1.362, -1.756
23.613, -0.706, -2.734, -0.712
23.647, 3.238, -0.865, 0.429
23.679, 4.284, -0.472, 0.751
23.719, 3.205, -0.555, 0.874
23.748, 2.668, 0.166, 1.51
23.78, 2.199, -0.003, 1.613
23.811, 0.375, 0.33, 2.194
23.841, 0.306, -0.005, 2.631
23.867, 0.52, -1.232, 1.559
23.894, -1.224, -2.132, 0.649
23.921, -2.919, -1.865, 1.303
23.948, -4.045, 3.573, -0.436
23.975, -6.112, 4.158, -2.322
24.001, -0.502, -4.068, -3.582
24.026, 1.194, -1.306, -4.945
24.052, -0.238, -0.902, -2.738
24.078, -2.27, 0.028, -1.252
24.103, -2.565, 1.534, 0.671
24.129, -1.036, 1.227, 0.444
24.154, 1.828, 0.783, 0.364
24.182, 3.837, 0.267, 1.402
24.207, 3.47, 0.195, 0.598
24.232, 4.063, 0.083, 0.745
24.258, 4.172, -0.422, 1.49
24.282, 2.284, -0.304, 1.442
24.308, 1.917, 0.428, 1.578
24.348, 1.866, 0.396, 1.649
24.377, 1.059, 1.502, 1.202
24.404, -4.552, 0.689, -0.604
24.433, -5.828, -0.998, -1.24
24.462, -6.438, -5.56, -2.888
24.49, 1.35, 2.319, -2.068
24.517, 1.689, 5.879, -1.875
24.548, -1.208, 0.028, -3.091
24.576, -3.035, -5.581, -3.564
24.608, 0.171, -0.861, -0.76
24.641, 1.494, 0.05, 0.397
24.675, 3.753, -0.91, 0.607
24.706, 3.559, -0.848, 1.076
24.739, 3.333, 0.52, 1.326
24.769, 2.1, 0.745, 1.509
24.802, 0.99, 0.31, 1.192
24.835, 0.5, 0.565, 2.355
24.864, 0.946, -0.188, 2.397
24.892, 0.479, -3.161, 1.649
24.922, -1.661, -1.279, 1.132
24.953, -3.761, 7.428, -4.102
24.983, -2.08, -4.62, -4.564
25.012, 0.32, -8.171, -5.556
25.042, 0.13, -3.13, -2.577
25.07, -2.079, 3.206, -1.237
25.101, -4.454, 6.218, 0.216
25.129, -1.09, -0.75, -0.17
25.159, 2.697, 0.221, -0.409
25.188, 3.532, -0.176, 0.717
25.22, 3.446, -0.748, 0.106
25.25, 3.505, -0.625, 0.748
25.279, 2.812, -0.376, 0.704
25.308, 1.502, 0.275, 1.067
25.344, 0.986, -0.207, 1.929
25.375, 1.118, 0.882, 2.114
25.406, -3.652, 2.311, 1.196
25.435, -4.344, 0.876, 0.448
25.462, -5.065, -1.159, -2.938
25.492, -5.949, -5.874, -7.699
25.525, 0.309, -0.097, -4.686
25.558, -1.464, 1.036, -2.439
25.586, -1.353, 0.91, -1.58
25.614, -2.774, -0.939, -0.593
25.645, 1.064, -2.966, -0.333
25.673, 2.725, -1.916, -0.235
25.702, 4.687, -0.713, 0.387
25.728, 4.128, -0.343, 0.746
25.754, 3.094, 0.032, 1.17
25.782, 1.478, 0.524, 1.465
25.808, 1.043, 0.082, 1.597
25.838, 0.958, 0.146, 1.75
25.864, 1.97, -0.196, 2.594
25.892, 0.398, -2.424, 1.909
25.922, -3.983, -2.132, 1.714
25.95, -2.917, 0.537, 0.943
25.978, -3.561, 4.994, -2.265
26.006, -0.775, -1.94, -4.852
26.035, 1.466, -3.04, -5.544
26.063, -2.312, -3.622, -3.332
26.094, -4.457, 0.712, -1.743
26.122, -5.287, 4.324, 0.661
26.151, -0.222, 2.431, 0.263
26.182, 4.551, 0.153, 1.289
26.211, 3.678, -0.86, 0.303
26.238, 4.297, -0.731, 0.235
26.265, 3.741, -0.742, 1.013
26.296, 3.065, -0.741, 1.01
26.323, 1.516, -0.095, 1.146
26.357, 1.083, -0.22, 1.348
26.385, 0.388, 1.341, 1.481
26.415, -2.174, 3.215, 0.662
26.447, -2.772, -1.008, 2.483
26.476, -7.9, -0.331, -7.049
26.505, -2.237, 1.199, -7.674
26.533, 0.606, 0.611, -3.498
26.563, -1.061, 3.486, -1.47
26.591, -1.25, -0.189, -1.843
26.619, -1.23, -1.746, -1.451
26.65, 0.605, -1.829, -0.049
26.681, 2.307, -0.886, 0.412
26.708, 3.88, -0.764, 0.759
26.739, 3.343, -0.674, 0.634
26.768, 2.146, 0.683, 1.744
26.798, 1.585, 0.539, 1.497
26.828, 0.883, 0.562, 1.577
26.857, 1.704, 0.674, 2.12
26.885, 1.123, -1.294, 2.4
26.916, -1.41, -3.778, 2.098
26.945, -2.204, 0.53, 2.025
26.975, -1.902, 4.571, -1.141
27.005, -2.467, -0.636, -4.215
27.04, 0.514, -4.111, -6.335
27.073, -0.575, -4.051, -3.765
27.105, -5.99, 4.589, 1.149
27.139, -4.064, 3.592, 2.166
27.172, 3.047, 0.924, -0.167
27.202, 3.83, -0.448, 1.055
27.229, 3.961, -0.483, 0.173
27.259, 4.381, -0.175, 0.598
27.29, 3.602, -0.657, 1.109
27.321, 2.944, -0.243, 1.13
27.351, 1.641, -0.103, 1.662
27.378, 1.97, -0.489, 2.061
27.406, -2.02, 2.529, 1.446
27.437, -5.267, 1.931, -0.197
27.465, -6.4, -1.37, -3.429
27.494, -7.362, -6.151, -8.655
27.523, 2.052, 0.771, -3.179
27.552, -0.169, 4.027, -4.963
27.58, -1.994, 1.696, -2.004
27.608, -3.203, -0.778, -1.392
27.639, -2.254, -2.466, -0.473
27.668, 1.095, -1.406, -0.086
27.699, 3.01, -1.128, 0.142
27.728, 3.636, -0.721, 0.204
27.76, 3.054, -0.596, 0.692
27.792, 2.942, 0.549, 1.408
27.822, 2.176, 0.415, 1.702
27.85, 0.97, -0.061, 1.805
27.879, 1.871, 0.313, 2.042
27.912, 0.303, -2.679, 1.823
27.942, -3.559, -0.277, 2.377
27.974, -3.85, 1.894, 0.774
28.005, -2.866, 4.745, -3.841
28.034, 0.826, -3.833, -5.506
28.062, -0.999, -3.558, -3.778
28.092, -3.264, 0.986, -1.833
28.123, -4.57, 3.192, -0.473
28.152, -0.837, 2.529, 0.625
28.183, 3.92, 0.269, 0.482
28.21, 5.031, -0.246, 1.289
28.239, 4.181, -0.438, 0.544
28.266, 4.168, -0.063, 1.166
28.296, 3.439, -0.274, 1.112
28.327, 1.453, -0.065, 1.314
28.355, 1.084, 0.306, 1.261
28.382, 0.911, 0.026, 1.93
28.412, -0.144, 1.659, 1.53
28.442, -4.075, -0.021, 1.323
28.47, -2.934, -0.417, 3.262
28.498, -4.376, 2.088, -0.33
28.528, 0.458, -2.121, -3.31
28.556, -0.423, -2.249, -8.068
28.584, -1.35, 2.078, -1.034
28.614, 0.562, 4.054, -1.475
28.645, -1.807, -3.635, -0.037
28.674, 0.437, -2.333, 0.288
28.703, 3.043, -0.026, 0.697
28.732, 3.455, -0.446, 0.302
28.761, 3.319, -1.362, 0.108
28.789, 3.609, -0.162, 1.791
28.817, 2.467, 1.362, 2.159
28.849, 1.308, 1.935, 2.319
28.877, 0.672, 1.77, 2.401
28.904, 0.145, -0.097, 1.964
28.933, -2.423, -2.778, 1.292
28.966, -2.554, 2.708, 3.685
28.999, -2.913, 3.315, 0.88
29.036, -1.333, 2.234, -5.63
29.072, 1.832, -2.846, -4.528
29.098, -0.603, -2.892, -2.761
29.13, -6.117, 1.112, 0.722
29.159, -4.741, 1.277, 1.509
29.19, 1.713, 0.295, 0.336
29.22, 5.866, -0.115, 0.712
29.246, 4.743, -0.015, 0.317
29.273, 4.462, -0.213, 0.968
29.301, 3.876, -1.33, 1.032
29.327, 2.339, -0.713, 0.989
29.355, 1.399, -1.375, 1.507
29.383, 0.071, -1.765, 1.603
29.411, -1.281, 1.079, 1.609
29.438, -4.523, 1.425, 1.644
29.467, -5.029, -1.534, 1.764
29.494, -8.492, -2.968, -9.348
29.523, 1.744, -0.31, -5.656
29.556, 1.549, 2.866, -1.992
29.588, -1.617, -0.033, -2.72
29.619, -1.652, -0.693, -1.706
29.65, 1.627, -1.996, -0.277
29.678, 2.675, -0.811, 0.55
29.708, 5.155, -1.082, 0.902
29.742, 4.466, -1.892, 1.219
29.774, 3.405, -0.897, 1.588
29.807, 2.894, 0.09, 1.496
29.838, 1.387, 0.271, 1.437
29.866, -0.36, 0.014, 2.483
29.894, -0.992, -1.885, 2.072
29.925, -4.992, -0.139, 2.411
29.957, -4.213, 2.614, 0.131
29.986, -1.845, 5.615, -4.307
30.016, -0.125, -5.047, -6.722
30.044, -2.548, -5.707, -5.274
30.074, -3.985, -1.918, -2.575
30.105, -2.231, 2.535, 0.78
30.134, -0.689, 2.691, 1.034
30.162, 5.458, 0.538, 1.202
30.189, 7.577, -0.339, 1.867
30.217, 7.331, -0.4, 0.713
30.242, 5.26, 1.644, 1.062
30.276, 3.12, 1.874, 1.02
30.312, -0.668, 0.395, 1.552
30.349, -1.901, 0.067, 3.198
30.378, -3.324, 2.228, 2.687
30.408, -5.702, 2.139, 2.021
30.437, -4.717, 0.385, -4.141
30.464, -3.165, -9.485, -7.745
30.497, 1.987, -1.135, 0.465
30.528, -1.7, 4.189, -2.462
30.559, -4.009, -0.478, -1.58
30.589, 1.335, -2.856, -0.251
30.619, 2.507, -1.218, 0.6
30.652, 6.97, -0.809, 0.714
30.685, 5.468, -1.783, 0.288
30.714, 3.966, -1.241, 0.528
30.742, 3.737, 0.364, 1.519
30.768, 2.327, 1.161, 2.267
30.795, -0.327, 1.056, 3.499
30.822, -2.65, -0.537, 3.139
30.85, -4.049, 0.175, 3.385
30.877, -4.121, 1.708, 2.654
30.903, -5.841, 13.84, -6.059
30.931, -1.215, 3.673, -4.715
30.956, 1.237, -6.655, -4.412
30.983, -4.617, -9.226, -5.663
31.012, -2.54, 0.022, -2.337
31.039, -3.896, 4.148, 0.284
31.065, -0.241, -0.721, 1.74
31.096, 4.3, -0.129, 0.592
31.124, 7.727, -0.545, 2.589
31.154, 7.026, -0.97, 1.487
31.182, 4.958, 0.623, 1.229
31.209, 3.148, 0.948, 1.48
31.236, 1.29, -0.037, 1.896
31.266, -1.39, -1.601, 2.642
31.296, -3.243, 0.172, 3.231
31.324, -8.202, 0.886, 1.149
31.353, -7.442, -1.836, -3.048
31.382, -2.464, -9.166, -2.796
31.409, 4.596, 1.035, 1.223
31.437, 0.142, 7.644, -3.047
31.467, -3.399, -2.928, -2.452
31.495, -1.476, -3.568, -0.638
31.524, 1.243, -1.921, 0.251
31.553, 3.176, -1.152, 0.898
31.583, 6.831, -1.553, 1.256
31.612, 5.62, -1.771, 1.3
31.64, 3.967, -1.397, 1.222
31.67, 3.264, -1.262, 1.152
31.701, 2.918, -1.127, 1.78
31.729, 0.664, 0.128, 4.563
31.759, -1.361, -0.405, 2.86
31.79, -4.74, -0.775, 2.87
31.822, -2.539, 1.402, 0.799
31.854, -4.274, 11.314, -4.905
31.883, -1.77, -8.325, -5.485
31.91, -6.854, -10.416, -5.25
31.942, -6.134, -1.941, -3.061
31.971, -3.022, 2.495, 0.979
31.997, -1.012, 0.936, 1.444
32.024, 6.783, 0.492, 1.515
32.054, 7.421, -0.111, 2.841
32.082, 6.183, -0.181, 1.673
32.109, 5.349, 0.063, 1.748
32.14, 3.963, -0.02, 1.617
32.173, 1.457, -0.825, 1.462
32.2, 0.795, -1.304, 1.967
32.229, -2.838, 0.51, 1.977
32.26, -6.748, 1.067, 1.019
32.289, -5.058, 0.01, 2.734
32.317, -9.571, -1.518, -10.6
32.347, 2.03, -4.571, -4.665
32.376, 0.692, 5.549, -3.004
32.404, -3.309, -0.654, -2.419
32.432, -3.988, -1.207, -0.782
32.459, -0.344, -2.726, -0.175
32.489, 2.488, -0.267, 1.048
32.516, 4.389, -0.414, 1.079
32.546, 5.288, -2.039, 0.666
32.575, 4.403, -1.841, 0.96
32.603, 3.894, -0.164, 1.647
32.632, 2.558, -0.425, 2.048
32.664, 0.327, 1.508, 2.71
32.693, 0.133, -0.035, 2.6
32.721, -2.338, -2.411, 2.668
32.75, -4.911, 0.681, 3.396
32.782, -5.436, 5.488, -3.905
32.809, -2.689, 7.955, -7.149
32.841, 1.777, -1.326, -5.337
32.867, -3.035, -5.538, -5.299
32.894, -6.28, -2.501, -3.021
32.92, -3.996, 1.849, -0.442
32.949, -1.73, 1.848, 1.565
32.977, 2.149, 1.122, 1.197
33.002, 7.118, -0.743, 1.729
33.029, 7.074, -0.68, 0.662
33.057, 6.29, -0.194, 1.288
33.082, 3.471, -0.202, 1.726
33.112, 2.517, -0.584, 1.465
33.139, 1.164, -0.816, 1.953
33.168, -0.679, -0.324, 1.971
33.196, -1.805, 1.119, 1.97
33.224, -5.934, 0.796, 1.659
33.252, -2.801, -0.541, 4.842
33.282, -3.357, 1.185, 1.588
33.315, 2.698, -9.707, -0.548
33.35, 2.165, 9.313, -3.046
33.384, -6.775, 0.657, -0.525
33.419, -3.505, -3.428, 0.027
33.453, 1.712, -1.415, -0.009
33.485, 6.963, -0.925, 0.387
33.517, 7.02, -1.236, 0.331
33.55, 4.717, -2.132, 0.543
33.583, 4.085, 0.056, 1.759
33.617, 3.323, 0.689, 2.602
33.651, -2.42, -0.326, 3.094
33.685, -4.19, -0.881, 3.538
33.717, -3.464, 1.701, 3.945
33.744, -6.513, 12.003, -9.993
33.772, -0.571, 5.797, -5.558
33.803, -3.809, -10.373, -7.527
33.836, -6.745, -11.558, -6.22
33.869, -4.486, 4.761, 0.188
33.9, -2.46, 3.203, 1.986
33.929, 6.712, 1.965, 1.244
33.959, 7.787, 1.126, 2.468
33.993, 7.405, -0.601, 1.249
34.024, 5.876, 0.942, 1.438
34.051, 4.194, 0.727, 1.107
34.078, 2.829, 0.381, 1.259
34.106, -0.539, -0.128, 1.61
34.137, -2.087, 0.117, 1.957
34.167, -8.124, 0.83, 1.482
34.195, -5.805, -0.428, 2.442
34.225, -8.785, -5.73, -6.152
34.255, 1.185, -3.314, -8.444
34.288, -1.551, 5.469, -2.91
34.32, -2.867, 3.841, -2.556
34.349, -1.345, -1.256, 0.068
34.379, 1.132, -3.071, -0.578
34.411, 2.844, -1.308, 1.006
34.441, 5.412, -1.433, 1.166
34.472, 6.83, -1.511, 1.009
34.501, 5.26, -1.31, 0.496
34.529, 3.811, -0.931, 0.642
34.558, 1.258, 0.155, 1.546
34.588, -2.236, -0.072, 3.183
34.617, -2.877, -1.187, 2.725
34.647, -3.496, 0.373, 3.284
34.676, -2.724, 1.991, 1.966
34.705, -4.161, 13.116, -7.148
34.734, 0.823, -0.703, -4.379
34.762, -5.612, -10.351, -6.479
34.795, -6.942, -3.008, -4.289
34.828, -3.491, 2.561, 0.34
34.863, 4.102, 0.745, 0.933
34.895, 7.523, 0.818, 1.879
34.928, 7.746, -0.454, 1.191
34.961, 6.886, 0.178, 1.164
34.995, 4.203, -0.117, 1.178
35.028, 1.205, -1.039, 1.431
35.062, -1.722, 0.527, 1.946
35.096, -3.957, 0.914, 2.097
35.13, -4.954, -0.793, 1.921
35.163, -3.195, -10.743, -4.148
35.192, 0.939, -2.484, -3.126
35.22, -0.136, 5.107, -2.615
35.248, -2.203, 0.688, -1.693
35.278, -4.188, -1.584, -0.862
35.306, 0.77, -3.138, -0.376
35.336, 1.699, -1.822, 0.44
35.364, 6.655, -0.642, 0.771
35.393, 7.656, -1.192, 0.955
35.421, 6.117, -1.679, 1.231
35.449, 2.606, -1.209, 1.012
35.478, 2.533, -1.194, 1.528
35.507, -0.215, -1.172, 3.744
35.537, -0.467, -1.405, 3.747
35.565, -3.077, -0.343, 2.172
35.596, -3.475, 0.881, 2.882
35.626, -4.686, 9.866, -7.204
35.655, 0.276, 2.684, -4.779
35.683, -3.095, -8.697, -7.407
35.714, -6.656, -5.969, -5.201
35.742, -2.67, 3.608, 0.439
35.769, -2.792, 2.489, 0.721
35.801, 1.118, 1.773, 0.446
35.834, 6.639, -0.106, 1.575
35.862, 5.127, -0.539, 0.952
35.888, 5.592, 0.068, 1.173
35.92, 4.894, 0.36, 1.401
35.95, 2.296, 0.597, 1.156
35.977, 1.981, 0.416, 1.456
36.003, 1.061, -1.331, 2.269
36.037, -0.939, -0.348, 2.477
36.07, -5.529, -0.148, 0.049
36.105, -5.921, -9.475, -5.79
36.138, -1.222, -0.954, -3.918
36.17, -0.385, 7.997, -2.471
36.202, -3.126, -2.926, -2.29
36.23, -2.599, -3.319, -0.504
36.259, 0.542, -3.458, -1.262
36.287, 2.622, -0.804, 0.686
36.316, 4.579, -0.647, 0.83
36.347, 5.379, -0.906, 1.055
36.376, 4.848, -0.643, 1.345
36.403, 2.671, -0.56, 1.056
36.434, 1.35, -0.667, 1.487
36.462, -0.62, 1.34, 3.1
36.489, -0.804, 0.375, 2.281
36.52, -1.488, -1.765, 1.496
36.549, -4.861, -1.516, 1.818
36.581, -3.879, 0.417, 2.689
36.608, -3.944, 7.274, -4.301
36.639, -1.598, 1.858, -3.597
36.669, 0.873, -4.903, -4.021
36.696, -2.675, -4.848, -4.715
36.722, -3.664, 2.31, 0.556
36.749, -1.476, 0.961, 1.09
36.78, 0.392, 0.321, 0.844
36.811, 5.592, 0.141, 1.987
36.846, 6.045, -0.223, 0.997
36.877, 6.173, 0.091, 1.374
36.909, 4.152, 0.073, 1.288
36.945, 1.14, -0.445, 1.817
36.979, 0.069, -0.83, 2.188
37.012, -2.992, 2.321, 2.112
37.045, -4.07, -0.963, 2.326
37.078, -5.017, -1.149, -2.018
37.113, -1.173, -6.8, -4.865
37.146, -0.769, 6.102, -3.378
37.18, -1.733, 5.96, -2.388
37.213, -3.317, -0.763, -0.299
37.247, 0.738, -1.567, 0.15
37.278, 1.896, -0.161, 0.762
37.312, 6.421, -0.667, 0.952
37.349, 4.673, -1.197, 1.091
37.382, 2.955, -0.183, 0.998
37.412, 2.793, -0.815, 1.46
37.441, 1.535, -0.876, 2.263
37.469, -1.221, -0.926, 3.054
37.499, -2.984, -0.298, 2.909
37.529, -3.864, 1.652, 2.839
37.559, -2.918, 1.814, -1.464
37.585, -0.153, 4.599, -5.112
37.614, 1.234, -2.511, -3.724
37.645, -7.416, -4.936, -3.589
37.677, -3.964, 2.151, -1.387
37.703, -1.541, 0.815, 0.644
37.735, 1.556, 0.956, 0.646
37.766, 6.527, 0.734, 2.276
37.799, 6.766, -0.284, 1.339
37.832, 5.75, 0.1, 1.552
37.862, 3.596, 0.172, 1.431
37.888, 2.484, 0.02, 1.463
37.915, 1.982, -0.164, 1.484
37.946, 0.267, -0.208, 2.114
37.974, -3.698, 1.056, 1.317
38.002, -3.401, -1.382, 2.769
38.032, -7.95, -1.374, -10.241
38.061, -5.944, -9.558, -7.924
38.088, 2.694, 3.769, -0.97
38.12, 0.978, 7.706, -2.551
38.152, -3.256, -2.269, -1.456
38.186, -0.871, -2.786, -0.757
38.216, 0.809, -1.846, 0.348
38.244, 4.615, -0.613, 1.167
38.271, 6.019, -1.068, 1.31
38.297, 4.844, -1.524, 1.245
38.323, 2.691, 0.079, 1.635
38.355, 2.457, 0.065, 1.601
38.38, 1.951, 0.088, 2.064
38.406, -0.733, 0.525, 3.668
38.436, -1.479, -0.051, 3.451
38.462, -2.031, -2.294, 2.231
38.489, -2.683, -0.557, 2.851
38.517, -2.686, 0.941, 2.796
38.542, -3.964, 8.59, -6.935
38.575, -0.566, 2.075, -4.959
38.609, -3.449, -5.126, -4.684
38.644, -3.74, 2.505, -0.387
38.672, -2.454, 3.623, 0.921
38.702, 0.697, 0.743, 0.353
38.729, 4.195, 0.088, 0.928
38.758, 5.463, -0.412, 1.685
38.787, 4.376, 0.041, 0.997
38.818, 4.357, 0.507, 1.184
38.847, 2.779, -1.095, 1.003
38.875, 2.44, -0.811, 0.893
38.904, 0.199, -0.319, 2.302
38.932, -0.448, 0.144, 2.719
38.96, -1.478, 1.303, 2.057
38.989, -4.855, 0.958, 1.973
39.021, -3.989, -0.775, -0.69
39.049, -3.661, -7.108, -3.865
39.077, 1.135, -0.393, -1.733
39.107, -1.592, 5.933, -1.422
39.139, -2.694, -0.058, -1.299
39.166, -1.56, -3.032, -0.71
39.193, 0.292, -2.385, -1.126
39.221, 1.761, -0.858, 0.343
39.251, 4.676, -1.297, 0.659
39.281, 3.749, -1.074, 0.987
39.312, 2.417, 0.184, 1.45
39.349, 2.603, 0.138, 1.729
39.382, 2.227, -0.367, 1.782
39.414, 0.772, -0.73, 2.222
39.447, 0.355, -0.978, 3.212
39.479, -0.994, -0.796, 3.184
39.512, -2.88, 0.744, 2.843
39.547, -3.928, 8.11, -8.73
39.58, -0.276, 0.941, -4.619
39.617, -3.42, -6.25, -5.15
39.645, -3.766, 2.244, -0.621
39.677, -3.473, 2.545, 1.098
39.704, 0.615, 1.033, 1.01
39.732, 5.106, 0.38, 0.53
39.762, 5.896, -0.734, 1.311
39.79, 5.592, -0.533, 0.911
39.818, 4.667, -0.176, 1.167
39.847, 3.376, -0.543, 1.241
39.876, 2.736, -0.876, 1.445
39.903, 0.803, -0.595, 2.162
39.93, -1.046, 0.971, 1.921
39.959, -3.269, 2.556, 1.408
39.986, -4.645, 0.175, 2.398
40.015, -3.741, -0.667, 2.831
40.047, -1.864, -9.215, -6.136
40.074, 0.531, -3.53, -9.141
40.102, -0.576, 5.206, -1.313
40.129, -1.517, 5.557, -1.415
40.163, -1.938, -3.788, -0.691
40.195, 0.015, -3.418, -0.448
40.227, 3.342, -0.41, 0.766
40.258, 5.512, -0.538, 0.55
40.289, 4.739, -1.582, 0.628
40.319, 3.464, -1.193, 0.986
40.35, 3.095, -0.522, 0.741
40.38, 2.613, -1.014, 1.096
40.408, 0.164, -0.74, 2.809
40.436, -1.352, -0.505, 2.89
40.469, -4.14, -0.506, 3.323
40.502, -2.015, 1.575, 1.472
40.534, -2.568, 2.362, -5.233
40.565, 0.575, 2.725, -5.746
40.595, -1.832, -2.383, -4.875
40.625, -5.755, -5.085, -4.857
40.656, -4.058, 0.278, -0.128
40.685, 0.164, 1.98, 0.899
40.713, 3.884, 1.213, 0.951
40.74, 6.854, 0.53, 1.765
40.768, 5.458, -0.451, 1.287
40.796, 4.99, 0.234, 1.268
40.822, 3.133, 0.128, 1.336
40.855, 2.801, -0.352, 1.161
40.883, 1.356, -0.107, 1.679
40.909, 0.127, 0.136, 1.745
40.94, -1.306, 1.372, 1.809
40.97, -5.268, 1.485, 1.039
40.995, -4.191, -0.803, 2.132
41.025, -7.439, -2.077, -14.949
41.056, -1.318, -6.825, -6.51
41.082, -1.075, 3.984, -1.247
41.108, -2.491, 6.325, -1.062
41.137, -3.402, 4.872, -0.438
41.163, 0.548, -4.71, -0.965
41.191, 1.074, -3.066, 0.154
41.22, 2.843, -1.424, 0.739
41.247, 7.001, -0.832, -0.017
41.277, 6.055, -1.284, 0.291
41.31, 2.345, -0.531, 1.014
41.346, 1.827, 1.165, 2.252
41.375, 0.48, 1.334, 2.675
41.403, -1.283, -0.716, 2.957
41.431, -1.432, -1.285, 1.858
41.462, -1.586, 1.904, 3.01
41.491, -0.414, 1.933, 1.826
41.52, -2.067, 2.387, -3.938
41.55, 0.271, 2.304, -5.213
41.581, -1.707, -4.596, -6.17
41.612, -8.242, -2.673, -2.366
41.642, -3.582, 1.995, 0.502
41.673, -1.298, 1.202, 0.935
41.701, 2.62, 0.295, 0.517
41.729, 7.257, -0.313, 1.098
41.759, 6.788, -0.125, 0.746
41.787, 5.164, -0.414, 1.174
41.816, 3.987, -0.098, 1.156
41.847, 1.395, -1.091, 1.749
41.877, 0.004, -1.232, 2.115
41.904, -2.62, 1.767, 2.126
41.932, -5.111, 2.604, 1.893
41.962, -4.297, 0.092, 3.997
41.993, -4.979, -0.437, -1.244
42.022, -1.856, -7.701, -7.132
42.05, 1.153, 0.849, -1.512
42.081, -1.012, 4.728, -2.54
42.112, -3.258, 1.509, -0.628
42.141, -1.416, -2.376, 0.463
42.169, 1.595, -1.971, 0.755
42.199, 3.11, -0.592, 1.023
42.231, 6.876, -0.665, 0.831
42.262, 4.113, -1.283, 1.24
42.289, 2.126, -0.67, 1.642
42.317, 1.619, -0.453, 1.959
42.352, -0.482, 0.519, 2.852
42.382, -1.358, -2.186, 2.51
42.412, -3.164, -3.291, 2.649
42.441, -3.327, -1.659, 2.826
42.47, -1.348, 1.674, 1.417
42.502, -1.738, 8.261, -7.969
42.534, 1.217, 3.185, -4.783
42.568, -5.077, -5.538, -5.122
42.598, -7.29, -5.288, -3.027
42.624, -1.866, 1.661, 1.423
42.652, 0.403, 1.768, 1.047
42.685, 6.511, 0.037, 1.491
42.72, 7.132, -0.751, 1.201
42.752, 6.129, -0.72, 1.155
42.782, 3.88, 0.484, 1.559
42.81, 2.497, 0.083, 1.583
42.84, 1.17, -0.648, 1.632
42.869, -0.022, -0.781, 2.031
42.898, -1.48, 1.239, 2.671
42.926, -6.521, 1.466, 1.102
42.954, -5.008, -0.357, 1.451
42.985, -2.604, -8.034, -4.056
43.014, 1.627, -3.145, -2.604
43.042, -0.91, 8.551, -3.335
43.073, -1.737, 1.391, -2.237
43.106, -1.013, -3.485, -0.356
43.142, 0.637, -2.378, -0.553
43.169, 3.56, -0.155, 0.625
43.195, 5.634, -0.494, 0.501
43.222, 5.645, -1.126, 0.737
43.251, 3.386, -0.083, 1.313
43.277, 2.648, 0.365, 1.415
43.311, 0.336, 0.623, 2.278
43.346, -0.85, 0.889, 2.573
43.378, -0.746, -1.779, 1.893
43.409, -4.141, -2.005, 2.517
43.442, -3.064, 2.888, -0.771
43.476, -4.475, 9.979, -8.085
43.51, 1.098, -2.334, -3.674
43.545, -5.783, -5.174, -4.657
43.578, -2.916, 3.201, -0.579
43.612, -1.947, 1.382, 1.224
43.645, 4.42, 0.905, 0.537
43.677, 7.574, 0.35, 1.184
43.707, 6.666, -0.494, 1.372
43.736, 5.979, 0.392, 1.225
43.763, 3.811, 0.03, 1.395
43.792, 2.388, -0.551, 1.311
43.82, 1.217, -0.814, 1.515
43.85, -0.81, -0.185, 2.543
43.877, -3.651, 2.773, 1.989
43.907, -4.263, 0.587, 2.581
43.936, -3.799, -0.373, 0.94
43.963, -1.751, -9.609, -4.872
43.994, 2.145, -4.038, -2.632
44.024, -0.831, 8.931, -2.106
44.053, -2.506, 3.905, -1.225
44.081, -4.637, -0.318, -0.271
44.111, -0.057, -3.01, -0.278
44.145, 4.168, -0.565, 0.748
44.18, 6.688, -0.737, 0.599
44.214, 5.052, -0.854, 0.863
44.248, 3.227, -0.644, 0.76
44.282, 1.322, -0.196, 3.013
44.311, 0.567, 1.537, 3.683
44.343, -3.188, -0.826, 2.768
44.374, -6.005, -1.17, 2.537
44.402, -2.602, 1.715, 1.777
44.428, -3.477, 4.712, -4.453
44.456, -2.959, 11.342, -7.095
44.482, -1.844, -5.656, -5.529
44.512, -7.512, -7.667, -5.183
44.539, -4.15, 0.196, -1.722
44.567, -2.354, 2.321, 1.827
44.598, -0.567, 1.071, 1.081
44.627, 6.975, 0.886, 1.666
44.655, 7.074, 0.563, 2.154
44.683, 5.87, -0.489, 1.25
44.713, 5.835, -0.233, 1.403
44.741, 5.26, 0.215, 1.467
44.769, 2.132, -1.467, 1.601
44.799, 1.008, -1.626, 1.906
44.832, -3.941, 2.279, 1.903
44.861, -7.144, 0.946, 0.688
44.888, -3.84, -0.58, 2.507
44.918, -8.249, -1.221, -14.222
44.948, 1.264, -3.329, -4.278
44.976, 0.022, 2.512, -2.539
45.005, -2.079, 1.739, -1.63
45.037, -4.184, 0.865, -0.645
45.069, 0.276, -3.262, -0.479
45.102, 3.364, -0.702, 0.953
45.134, 5.798, -0.422, 0.755
45.163, 4.57, -1.818, 0.929
45.192, 2.954, -0.77, 0.578
45.221, 2.605, -0.125, 0.726
45.252, 2.024, 0.647, 3.084
45.279, 0.998, 1.441, 3.671
45.306, -0.999, -0.225, 2.758
45.336, -1.81, -1.317, 1.584
45.363, -2.544, 0.002, 2.328
45.395, -1.097, 0.947, 0.635
45.426, 1.516, 3.106, -4.272
45.459, -0.07, -4.128, -4.462
45.491, -6.199, -1.558, -4.022
45.523, -2.584, 4.278, 0.294
45.557, -2.376, 1.55, 0.791
45.59, 3.168, -0.21, 0.238
45.623, 7.208, -0.253, 1.06
45.658, 7.188, -0.312, 1.441
45.693, 4.905, -0.213, 1.049
45.722, 3.393, -0.06, 0.975
45.752, 1.76, 0.061, 1.427
45.778, 0.347, -0.146, 2.554
45.81, -2.716, 0.386, 2.154
45.844, -4.839, 2.322, 1.623
45.874, -4.272, 1.102, 1.891
45.903, -7.175, -1.022, -8.182
45.931, -2.275, -7.44, -6.291
45.961, 0.946, -2.867, -6.676
45.991, -1.257, 4.673, -1.398
46.02, -2.828, 4.436, -1.222
46.049, -0.973, -2.805, 0.005
46.078, 1.05, -2.65, 0.014
46.107, 3.307, -0.762, 0.872
46.138, 5.789, -0.856, 1.116
46.166, 5.104, -1.563, 0.797
46.196, 3.415, -0.938, 1.395
46.225, 2.236, 0.332, 2.271
46.256, 1.181, 0.771, 3.179
46.283, -2.561, -0.119, 3.702
46.314, -2.596, -0.898, 3.333
46.349, -1.888, -0.998, 3.291
46.382, -0.837, 2.043, -0.303
46.413, -2.905, 5.047, -8.42
46.445, 0.448, -2.253, -4.451
46.475, -3.68, -6.184, -5.077
46.503, -5.261, -2.399, -2.113
46.532, -2.214, 1.226, 0.366
46.562, -0.362, 1.16, 0.83
46.589, 2.695, 0.568, 0.756
46.617, 5.78, -0.288, 1.206
46.649, 5.788, -0.885, 1.054
46.678, 5.401, -0.002, 1.22
46.706, 3.835, -0.132, 1.426
46.735, 2.597, -0.241, 1.414
46.763, 0.532, 0.022, 2.246
46.792, -0.533, 0.246, 2.282
46.819, -0.997, 0.592, 2.549
46.849, -5.67, 1.774, 0.967
46.879, -3.986, -0.343, 2.176
46.908, -5.758, -6.299, -9.457
46.938, -1.023, -3.573, -4.288
46.966, 0.344, 5.206, -3.14
46.996, -2.115, 1.53, -1.715
47.024, -2.688, -1.298, -0.396
47.052, -0.669, -2.444, -0.489
47.082, 1.949, -1.173, 0.32
47.109, 4.29, -1.344, 0.643
47.138, 5.177, -1.462, 0.244
47.166, 3.829, -0.897, 0.735
47.193, 3.394, -0.098, 0.973
47.221, 3.317, 0.415, 0.917
47.249, 1.506, 0.035, 1.567
47.278, -0.234, 0.27, 2.293
47.306, -0.994, -1.352, 1.768
47.336, -2.314, -1.287, 1.932
47.366, -2.68, 1.261, 2.964
47.395, -3.461, 3.117, -0.953
47.423, -0.108, -0.529, -4.348
47.453, 1.339, -5.03, -5.524
47.483, -3.475, -3.203, -2.887
47.511, -3.688, 0.948, -0.722
47.539, -4.085, 2.586, 0.837
47.568, -0.313, 1.251, 0.661
47.597, 2.969, 0.822, 0.689
47.625, 5.462, -0.987, 1.204
47.66, 5.269, -0.162, 0.691
47.688, 3.958, 0.733, 1.564
47.718, 2.781, -0.266, 1.318
47.746, 1.384, -0.143, 1.536
47.773, 0.515, -0.672, 1.994
47.802, 0.065, -0.678, 2.675
47.832, -3.991, 2.601, 1.805
47.861, -6.162, 2.636, 1.176
47.889, -6.112, -1.532, -6.263
47.92, -4.437, -7.683, -3.651
47.95, -0.001, 3.277, -1.652
47.977, -1.016, 7.436, -1.707
48.008, -2.907, 0.025, -0.937
48.04, -0.722, -3.544, -0.262
48.073, 1.971, -1.776, 0.177
48.103, 5.569, -0.638, 0.63
48.131, 5.73, -0.953, 0.345
48.159, 4.711, -1.127, 0.649
48.188, 2.388, 0.093, 1.116
48.215, 2.204, 0.611, 1.446
48.242, 1.052, 1.233, 1.78
48.272, -0.336, -0.066, 2.868
48.299, -1.323, -1.698, 2.248
48.329, -4.068, -0.367, 2.326
48.362, -1.712, 4.232, -2.985
48.391, -5.307, 9.484, -6.372
48.417, -0.385, -0.666, -5.967
48.445, -1.831, -5.867, -5.659
48.473, -5.588, -4.25, -3.73
48.5, -4.083, 1.8, -1.432
48.527, -2.926, 2.759, 0.773
48.557, 2.119, 1.099, 0.647
48.583, 6.509, 0.078, 1.615
48.612, 5.635, -0.79, 0.345
48.642, 5.956, -0.236, 0.538
48.669, 4.488, 0.21, 0.753
48.699, 3.275, 0.007, 0.628
48.729, 1.516, 0.056, 1.504
48.759, 0.717, -0.229, 2.053
48.786, -2.584, 1.936, 2.092
48.815, -5.927, 2.158, 0.777
48.846, -5.266, -0.508, -1.168
48.874, -8.705, -5.549, -15.025
48.901, -0.083, -5.049, -1.426
48.93, -0.473, 3.772, -3.638
48.964, -1.616, 0.896, -1.858
48.999, -2.378, 0.66, -0.989
49.032, 0.681, -2.365, -0.405
49.064, 3.59, -1.059, 0.435
49.092, 5.682, -1.408, 0.26
49.12, 5.996, -1.337, 0.591
49.152, 3.497, 0.12, 1.217
49.181, 2.527, 0.453, 1.871
49.208, 0.73, 0.089, 2.091
49.237, -0.406, -0.112, 2.158
49.266, 0.213, -1.052, 1.902
49.301, -1.411, -2.617, 1.709
49.332, -3.973, 0.45, 3.255
49.36, -2.33, 2.222, 2.343
49.387, -3.244, 7.397, -7.524
49.419, 1.472, -0.432, -5.039
49.452, -2.168, -5.262, -5.576
49.484, -3.767, 1.652, 0.115
49.518, -2.929, 1.715, 0.907
49.545, 2.627, 0.895, 0.694
49.579, 5.588, 0.835, 0.936
49.606, 6.308, -0.895, 0.847
49.635, 6.045, -0.246, 0.696
49.665, 3.672, 0.336, 1.608
49.693, 2.211, -0.303, 1.607
49.719, 1.262, -0.422, 1.428
49.75, 0.246, -0.432, 2.263
49.777, -0.993, 0.963, 2.05
49.805, -5.862, 0.787, 1.367
49.835, -3.591, -0.314, 3.555
49.863, -3.322, -6.609, -6.615
49.892, -0.766, -2.719, -8.023
49.919, 1.267, 0.714, -1.79
49.96, -1.018, 3.917, -2.467
49.987, -2.727, -1.028, -0.405
50.016, 0.998, -3.511, -0.647
50.045, 3.521, -0.723, 0.969
50.077, 5.26, -0.748, 1.075
50.109, 4.643, -1.379, 0.572
50.142, 2.829, -0.176, 1.375
50.174, 2.11, 0.657, 2.033
50.205, -1.182, 2.017, 3.428
50.234, -1.892, 1.33, 3.1
50.263, -2.176, -2.857, 1.461
50.293, -2.273, -1.715, 2.489
50.323, -1.482, 4.118, -3.388
50.353, -5.599, 11.784, -7.85
50.382, 1.837, -5.294, -4.453
50.412, -4.751, -8.209, -5.636
50.442, -5.24, -1.841, -2.896
50.472, -3.08, 2.865, 1.133
50.5, -1.857, 1.616, 0.696
50.529, 6.653, 0.864, 0.566
50.56, 7.378, 0.094, 1.629
50.592, 6.154, 0.484, 0.655
50.62, 5.366, 1.14, 1.061
50.649, 2.593, 0.257, 1.235
50.679, 1.81, -0.293, 1.426
50.708, -0.367, 0.808, 2.201
50.735, -2.75, 2.077, 2.601
50.762, -4.453, -0.478, 1.163
50.791, -2.798, -1.196, 3.047
50.822, -6.773, -1.722, -10.889
50.852, -0.101, -3.9, -8.866
50.882, 0.795, 1.04, -2.703
50.914, -1.929, 4.504, -2.306
50.947, -1.393, -2.918, -0.394
50.982, 1.586, -2.316, -0.483
51.017, 3.165, -0.806, 0.015
51.053, 5.664, -0.7, 0.076
51.08, 5.007, -0.841, 0.189
51.111, 2.407, 0.335, 0.874
51.136, 1.376, 0.181, 1.49
51.166, -0.36, 1.439, 3.224
51.195, -0.268, 1.454, 3.279
51.221, -0.212, -0.406, 2.773
51.248, -3.664, -2.103, 1.917
51.282, -2.403, 3.715, -1.203
51.317, -4.536, 11.612, -6.026
51.354, 0.732, -6.142, -4.589
51.388, -3.88, -2.677, -3.637
51.416, -2.789, 2.776, -0.676
51.447, -1.83, 1.715, 1.585
51.474, -0.087, 1.029, 0.876
51.502, 6.709, 0.725, 1.514
51.532, 6.097, -0.657, 1.919
51.561, 5.108, -0.377, 0.629
51.589, 4.095, 0.433, 1.453
51.619, 2.622, 0.22, 1.061
51.65, 0.502, -0.038, 1.329
51.68, 1.045, -0.775, 1.926
51.708, -1.216, 1.691, 2.328
51.736, -4.254, 2.548, 1.043
51.768, -5.064, -1.243, -1.429
51.797, -7.306, -5.295, -9.592
51.825, 0.803, 0.474, -3.711
51.854, 0.153, 3.951, -1.549
51.884, -1.369, 1.313, -1.779
51.912, -2.312, -1.639, -1.175
51.94, -1.465, -3.821, -0.073
51.97, 2.806, -1.575, 0.795
52.001, 4.637, -0.839, 1.098
52.029, 4.973, -0.685, 1.315
52.057, 3.594, -0.878, 1.487
52.086, 1.995, 0.138, 1.584
52.115, 1.61, 0.033, 1.589
52.145, -0.313, -0.096, 2.288
52.173, -0.12, -0.731, 2.634
52.202, -0.568, -3.942, 0.432
52.229, -1.623, -3.158, 1.686
52.258, -2.298, -0.434, 1.95
52.288, -4.997, 9.29, -4.632
52.32, 0.326, -3.216, -3.569
52.348, -3.219, -8.365, -4.482
52.377, -3.585, -0.542, -3.002
52.406, -5.33, 5.13, 1.152
52.435, -2.739, 2.038, 2.115
52.463, 4.507, 1.193, 0.469
52.492, 6.326, 0.797, 1.448
52.522, 5.58, -0.757, 0.645
52.551, 5.954, -0.188, 1.235
52.581, 5.054, 0.17, 1.338
52.609, 2.371, -0.491, 1.557
52.641, 1.347, -0.607, 1.889
52.669, -0.888, -0.05, 1.919
52.696, -1.454, 1.57, 1.931
52.722, -5.252, 1.568, 1.043
52.75, -4.604, -0.007, 2.516
52.777, -8.262, -1.204, -5.343
52.805, -0.108, -0.769, -6.682
52.836, 1.749, 0.723, -1.9
52.864, -0.689, 3.431, -0.644
52.892, -1.378, -0.873, -1.564
52.92, -2.417, -3.238, -0.822
52.95, 0.912, -1.884, 0.255
52.978, 2.172, 0.003, 0.225
53.008, 5.108, -0.513, 0.572
53.039, 4.286, -1.094, 0.745
53.069, 2.004, 0.12, 1.431
53.096, 2.196, 0.618, 1.219
53.13, 1.385, -1.197, 1.155
53.162, -0.398, -1.24, 3.114
53.19, 0.762, -1.236, 2.386
53.217, -0.409, -0.769, 2.662
53.248, -2.941, 1.387, 2.513
53.283, -4.824, 7.254, -8.271
53.319, 0.203, 1.11, -4.22
53.356, -2.109, -3.337, -4.523
53.387, -5.426, -0.22, -1.546
53.418, -3.91, 1.733, 0.124
53.451, -0.364, 1.553, 0.496
53.483, 5.819, -0.082, 1.332
53.515, 5.084, -1.258, 0.705
53.552, 4.512, 0.178, 1.152
53.582, 2.823, -0.791, 1.54
53.613, 1.732, -1.114, 1.407
53.641, 1.245, -0.908, 1.249
53.669, 0.845, -1.242, 2.342
53.701, 0.359, -0.5, 3.091
53.734, -3.639, 2.089, 2.77
53.768, -4.552, -0.918, 1.73
53.795, -8.566, -2.704, -10.471
53.826, 2.84, 1.095, -1.635
53.856, 1.141, 6.022, -0.824
53.884, -1.68, 1.18, -1.515
53.914, -2.156, -3.382, -1.694
53.942, 1.005, -2.512, -0.007
53.969, 2.247, -0.452, 1.102
54.0, 2.756, 0.079, 0.982
54.028, 4.868, -1.775, 1.094
54.057, 3.699, -1.958, 1.722
54.085, 2.018, -0.012, 2.272
54.117, 2.396, -0.009, 2.26
54.146, 1.137, -0.93, 1.957
54.174, 0.205, -1.172, 2.524
54.202, -0.453, -3.087, 1.865
54.229, -1.226, -3.523, 1.373
54.259, -1.541, -2.351, 2.662
54.289, -1.211, 2.363, 0.044
54.322, -4.318, 9.929, -7.461
54.353, 0.276, -0.677, -5.308
54.382, -5.805, -8.092, -4.292
54.412, -5.553, -3.161, -2.812
54.44, -2.23, 2.09, -0.174
54.471, 0.51, 1.941, 1.024
54.499, 3.957, 1.102, 0.775
54.528, 6.425, -0.984, 1.334
54.556, 5.825, -0.701, 1.089
54.589, 4.0, 0.318, 1.186
54.622, 2.285, -0.039, 1.114
54.654, 1.619, -1.25, 1.941
54.682, 1.202, -2.083, 2.773
54.708, -2.228, 2.244, 2.504
54.74, -4.665, 3.0, 2.171
54.769, -10.856, -5.83, -13.166
54.795, -5.692, -11.219, -3.498
54.825, 3.34, 8.561, 0.461
54.86, -1.638, 10.211, -3.653
54.891, -3.763, -5.999, -2.402
54.917, -2.136, -4.015, -0.991
54.95, 2.829, -0.519, -0.045
54.982, 2.903, -0.353, 0.267
55.013, 5.051, -1.5, 0.228
55.046, 2.647, -0.685, 1.082
55.077, 2.37, 0.228, 1.363
55.107, 1.258, -0.633, 1.665
55.134, -0.137, -0.642, 2.119
55.163, 0.382, -0.977, 2.44
55.193, 0.478, -1.942, 1.868
55.221, -0.467, -1.509, 2.451
55.249, -1.807, 2.484, 0.51
55.278, -2.416, 5.455, -5.003
55.311, -0.974, -0.523, -5.325
55.344, -3.647, -5.116, -5.962
55.372, -4.764, -1.941, -3.412
55.401, -2.805, 2.57, 0.037
55.428, -0.224, 2.631, 0.482
55.46, 2.539, 1.485, 0.541
55.489, 5.634, -0.649, 1.381
55.517, 5.454, -0.744, 1.033
55.546, 4.643, 0.462, 0.976
55.576, 3.349, -0.322, 1.172
55.603, 2.234, -1.275, 1.615
55.63, 1.173, -0.695, 1.479
55.662, -0.359, 0.787, 2.387
55.689, -0.417, 2.504, 2.385
55.718, -2.746, 2.018, 2.73
55.745, -5.992, 0.424, -1.83
55.773, -10.043, -3.248, -10.697
55.801, -4.287, -7.55, -3.676
55.832, 1.11, 3.826, -1.509
55.862, -1.917, 2.598, -1.965
55.889, -1.113, -0.847, -1.692
55.92, -1.186, -0.967, -0.461
55.953, 2.88, -1.138, 0.773
55.982, 5.123, -0.16, 0.656
56.011, 5.035, -1.238, 0.484
56.037, 3.884, -0.867, 0.751
56.068, 2.791, 0.251, 1.464
56.102, 1.049, 1.201, 1.81
56.133, -0.39, 0.692, 2.48
56.164, -1.455, -1.128, 2.337
56.193, -1.602, -2.336, 1.331
56.221, -1.588, -1.317, 1.82
56.254, -0.285, 2.122, 1.336
56.285, -3.004, 5.992, -8.096
56.314, 0.663, -0.021, -5.467
56.344, -6.618, -4.258, -5.816
56.376, -6.646, -2.491, -2.544
56.404, -3.139, 1.941, 1.134
56.433, -0.006, 2.963, 0.896
56.461, 2.909, 2.092, 0.965
56.487, 6.682, -0.952, 0.935
56.516, 6.588, -0.47, 0.584
56.542, 5.567, 0.126, 1.252
56.569, 3.377, 0.166, 1.259
56.602, 1.554, -0.609, 1.232
56.631, 0.818, -1.054, 2.275
56.659, -0.547, 0.029, 2.332
56.69, -5.077, 2.899, 1.659
56.722, -1.619, -0.362, 4.45
56.756, -4.532, 0.231, -6.129
56.787, -0.351, -6.504, -7.194
56.815, -1.341, -1.173, -6.673
56.844, -1.419, 3.958, -1.399
56.877, -4.3, 7.585, -1.008
56.91, 0.026, -4.714, -1.101
56.942, 0.963, -3.075, 0.199
56.976, 5.425, 0.42, 0.735
57.009, 6.058, -0.662, 0.514
57.042, 2.844, -0.553, 1.391
57.076, 2.002, -0.322, 1.558
57.107, 0.782, 0.342, 2.612
57.138, 0.774, -0.304, 3.133
57.168, -2.379, -2.554, 2.878
57.197, -3.85, -1.408, 2.577
57.232, -2.719, 2.832, -3.089
57.258, -2.328, 8.508, -6.647
57.284, -0.444, -4.218, -4.651
57.314, -5.009, -6.914, -5.093
57.341, -6.912, -3.282, -2.86
57.369, -2.976, 4.841, 0.399
57.395, -1.52, 2.801, 0.978
57.421, 0.692, 1.046, 0.033
57.447, 5.869, -1.088, 0.185
57.472, 6.274, -1.32, 0.182
57.5, 6.092, -0.109, 0.469
57.526, 4.589, 0.536, 0.992
57.554, 3.42, 0.171, 1.309
57.582, 1.647, 0.392, 1.799
57.61, 0.989, -0.038, 2.461
57.637, -0.127, 0.634, 2.717
57.663, -6.113, 1.834, 0.887
57.692, -4.75, -0.509, 1.645
57.72, -7.774, -2.192, -7.765
57.75, -2.969, -1.952, -4.632
57.78, 1.182, 3.94, -1.421
57.81, -1.681, 2.746, -1.815
57.84, -2.092, -2.46, -2.057
57.867, 0.454, -2.929, -0.176
57.895, 1.47, -1.245, 0.896
57.925, 5.917, -1.051, 0.763
57.953, 6.386, -1.038, 1.216
57.982, 3.767, -0.454, 1.155
58.013, 2.6, -0.051, 1.539
58.041, 2.108, 0.175, 2.061
58.067, 0.944, 1.084, 2.493
58.097, -0.02, 0.47, 3.055
58.124, -1.733, -1.479, 2.585
58.152, -1.796, -2.64, 1.949
58.182, -1.434, 2.124, 2.635
58.212, -1.31, 2.647, -1.628
58.24, -4.223, 7.02, -9.433
58.27, -0.117, -2.538, -5.524
58.301, -4.494, -3.548, -5.939
58.334, -4.91, -1.125, -1.157
58.366, -1.5, 2.771, 1.257
58.395, 0.79, 1.441, 0.564
58.422, 6.527, 0.073, 1.546
58.45, 5.31, -1.118, 1.266
58.48, 5.024, -0.224, 1.343
58.508, 3.706, -0.387, 1.649
58.536, 3.371, -0.4, 1.437
58.566, 1.422, 0.348, 1.503
58.595, 0.926, 0.104, 2.358
58.624, -0.312, 0.699, 1.814
58.653, -3.013, -0.057, 2.834
58.682, -5.98, -1.26, -2.474
58.709, -9.986, -5.321, -12.485
58.737, -3.953, -6.668, -1.867
58.766, 0.723, 5.669, -1.371
58.794, -1.848, 6.312, -1.524
58.824, -3.671, -4.198, -1.64
58.853, -1.473, -4.306, -1.395
58.883, 2.098, -1.669, -0.001
58.91, 3.642, -0.644, 0.384
58.941, 4.812, -1.086, 0.481
58.97, 3.915, -1.666, 0.563
59.0, 3.024, -0.557, 1.113
59.029, 3.041, 0.472, 1.912
59.062, 1.343, 0.053, 2.44
59.09, 0.245, -0.548, 3.157
59.122, -0.097, -0.831, 2.992
59.154, -1.099, -1.772, 2.161
59.188, 0.037, 1.821, -0.595
59.219, -1.802, 5.224, -6.173
59.249, -0.643, -1.578, -4.064
59.278, -4.623, -7.993, -6.059
59.308, -3.948, 0.19, -2.882
59.34, -2.302, 3.362, -0.17
59.368, -1.441, 1.174, 0.488
59.396, -0.054, 0.158, 0.396
59.424, 5.458, -1.137, 0.753
59.454, 5.314, -0.511, 0.444
59.482, 4.997, -0.396, 0.964
59.509, 3.361, -0.756, 0.854
59.541, 3.155, -0.153, 0.725
59.569, 1.618, 0.834, 1.272
59.599, 0.787, 0.549, 2.04
59.628, -1.678, 1.894, 2.835
59.66, -2.955, 3.612, 2.112
59.69, -2.215, 1.688, 1.696
59.718, -3.455, -0.585, -2.245
59.747, -0.764, -4.577, -4.18
59.778, 2.664, 0.44, -1.165
59.811, -1.712, 4.54, -1.674
59.842, -2.366, 1.131, -1.877
59.87, -0.596, -3.643, -1.356
59.902, 2.082, -0.593, 0.146
59.934, 3.404, -0.426, 0.732
59.965, 4.644, -1.084, 0.526
60.0, 3.346, -1.155, 0.989
60.032, 1.683, 1.073, 1.146
60.062, 0.945, 1.03, 1.676
60.09, 0.226, 1.052, 2.672
60.12, -0.114, 0.918, 3.467
60.146, -0.076, -1.368, 2.785
60.177, -1.408, -0.881, 2.528
60.203, -2.148, 3.658, -3.229
60.232, -6.148, 13.696, -7.561
60.262, 0.945, -7.224, -4.879
60.29, -3.124, -10.365, -6.514
60.316, -5.722, -5.722, -2.979
60.348, -3.046, 6.009, 0.932
60.378, -1.786, 0.79, 0.735
60.404, 5.868, 1.225, -0.057
60.43, 6.739, 0.367, 1.321
60.457, 5.003, -0.664, 0.86
60.482, 4.784, -0.108, 0.73
60.509, 3.133, -0.136, 0.474
60.536, 2.158, 0.241, 0.193
60.563, 0.643, -0.562, 1.609
60.59, -0.005, -1.003, 2.192
60.618, -0.271, -0.624, 2.751
60.649, -3.045, 3.755, 1.364
60.678, -2.63, 0.79, 1.985
60.705, -6.308, -1.256, -10.551
60.736, -2.885, -6.137, -4.878
60.771, -1.541, 1.308, -2.937
60.8, -0.341, 4.71, -1.556
60.834, -0.859, -0.337, -1.244
60.862, -0.023, -4.333, -0.775
60.888, 1.293, -2.771, 0.209
60.919, 2.846, -1.038, 0.551
60.951, 5.762, -0.32, 1.224
60.978, 3.265, -0.451, 1.375
61.008, 1.425, 0.817, 1.881
61.04, 1.827, 0.887, 1.883
61.075, 0.896, 0.571, 1.575
61.106, 0.19, -0.987, 2.157
61.139, -0.805, -2.485, 1.42
61.172, -2.364, -1.229, 1.416
61.204, -2.095, 4.013, -1.322
61.234, -5.107, 7.393, -4.875
61.262, 1.025, -4.193, -5.174
61.289, -1.457, -4.789, -4.73
61.32, -3.526, -1.288, -2.786
61.349, -2.773, 3.122, 0.041
61.381, -1.986, 1.912, 0.197
61.41, 2.5, 0.324, 0.341
61.44, 4.451, -0.398, 0.37
61.47, 4.696, -0.291, 0.44
61.499, 4.722, 0.261, 0.79
61.527, 2.946, -0.468, 0.654
61.558, 2.515, -0.32, 0.72
61.587, 1.2, -0.395, 2.072
61.615, 0.079, -0.318, 2.79
61.644, -1.498, 2.299, 1.523
61.674, -3.474, 2.104, 1.159
61.706, -3.758, -1.112, 1.472
61.734, -7.126, -2.221, -9.359
61.762, -0.603, -1.027, -7.79
61.79, -0.894, 0.118, -3.438
61.819, -1.139, 2.546, -1.242
61.847, -1.154, 1.362, -1.022
61.876, -2.552, -2.018, -0.343
61.905, 1.586, -2.402, -0.322
61.934, 3.606, -1.15, 0.279
61.962, 5.096, -0.408, 0.36
61.992, 3.765, -0.509, 0.542
62.02, 2.399, -0.425, 0.914
62.049, 2.22, 0.298, 1.02
62.08, 1.643, -0.083, 0.834
62.113, 0.263, -0.462, 1.827
62.146, -0.708, -1.278, 2.59
62.176, -1.509, -1.61, 1.831
62.203, -2.599, 0.571, 2.444
62.233, -2.541, 5.139, -3.496
62.263, -0.867, -1.14, -4.68
62.294, -0.27, -5.519, -4.826
62.323, -4.095, -1.514, -2.743
62.352, -2.786, 2.573, -0.605
62.379, -2.549, 3.123, 0.846
62.41, 0.612, 1.012, 0.224
62.439, 3.399, 0.152, 0.461
62.468, 5.327, -0.35, 0.966
62.5, 4.592, 0.154, 0.562
62.529, 3.1, -1.088, 0.766
62.557, 3.036, -1.173, 0.64
62.584, 1.739, 0.196, 0.885
62.613, 0.725, 0.35, 1.704
62.642, -0.515, 0.699, 1.792
62.671, -2.005, 1.772, 1.497
62.698, -4.236, 1.055, 1.677
62.725, -4.073, -0.508, -0.72
62.751, -6.854, -2.184, -10.091
62.781, -2.761, -2.407, -4.178
62.808, -1.646, 1.947, -3.514
62.836, -1.536, 2.51, -1.001
62.864, -3.153, -1.123, -0.634
62.892, -0.994, -4.023, -0.429
62.919, 0.947, -2.834, -0.189
62.949, 3.991, -0.431, 0.746
62.982, 4.438, -0.359, 0.719
63.009, 3.227, -0.497, 0.924
63.038, 2.78, 0.311, 0.973
63.069, 2.237, 0.559, 1.055
63.1, 1.273, 0.314, 1.276
63.129, -1.186, -0.418, 2.426
63.159, -1.061, -0.775, 2.333
63.189, -0.595, -0.911, 1.648
63.22, -1.056, -0.403, 2.393
63.252, -2.454, 4.711, -3.213
63.28, -4.093, 6.348, -5.833
63.312, -0.053, -4.344, -5.388
63.343, -4.703, -0.982, -2.356
63.372, -2.952, 2.272, -0.345
63.402, -1.171, 1.934, 1.133
63.429, 1.581, 1.4, 0.567
63.458, 3.934, 0.504, 0.673
63.487, 5.562, -0.404, 0.827
63.517, 4.57, 0.073, 0.933
63.546, 2.218, -0.165, 1.052
63.575, 2.013, -0.387, 1.163
63.603, 1.895, -0.239, 1.691
63.63, 1.251, -0.327, 2.487
63.659, -0.014, 0.594, 2.873
63.686, -4.618, 3.291, 0.715
63.713, -4.493, 0.924, 1.371
63.741, -3.072, -0.82, 3.34
63.774, -2.621, -3.433, -5.298
63.808, 0.162, 1.028, -1.825
63.844, 0.147, 3.818, -1.195
63.877, -1.802, 1.142, -0.88
63.912, -0.483, -4.645, -0.357
63.938, 0.556, -2.724, -0.238
63.971, 5.119, -0.578, 0.34
64.001, 5.836, -0.392, 0.585
64.034, 2.979, -0.655, 0.624
64.068, 1.32, 0.078, 1.517
64.103, -0.044, -0.428, 2.294
64.135, -0.424, -0.733, 3.373
64.167, -0.821, -1.089, 2.071
64.199, -2.714, -0.837, 1.694
64.23, -1.093, 0.83, 0.662
64.262, -2.303, 5.085, -7.094
64.296, 0.183, -0.232, -5.258
64.332, -2.976, -1.524, -4.588
64.364, -3.812, 0.224, -0.067
64.396, -3.714, 1.307, 1.236
64.43, 3.008, 1.281, 0.91
64.465, 5.096, -1.034, 1.108
64.499, 5.023, -1.027, 0.58
64.526, 4.209, 0.373, 0.988
64.553, 3.116, -0.192, 0.917
64.58, 2.556, -0.144, 0.913
64.614, 1.111, 0.429, 1.604
64.649, -0.685, 0.801, 2.627
64.682, -4.875, 1.926, 2.225
64.716, -3.407, 0.352, 2.6
64.75, -6.325, -2.422, -9.675
64.784, 0.97, -1.465, -4.507
64.817, -0.827, 1.328, -2.62
64.851, -0.477, 1.64, -1.393
64.883, -1.621, -3.287, -0.16
64.915, 0.526, -2.994, -0.337
64.95, 2.926, -0.01, 0.95
64.985, 4.384, -0.047, 1.191
65.017, 4.322, -0.396, 1.072
65.049, 2.049, -0.251, 0.627
65.079, 1.757, -0.85, 1.0
65.106, 0.38, 0.805, 2.735
65.135, 0.334, 0.412, 3.351
65.168, -3.422, -3.069, 1.512
65.195, -3.957, -1.8, 1.825
65.222, -2.009, 5.999, -2.834
65.252, -5.312, 6.451, -4.664
65.282, 0.373, -3.622, -4.574
65.309, -1.913, -2.893, -4.453
65.336, -3.88, 1.007, -1.483
65.365, -2.385, 2.805, 0.775
65.392, -1.543, 1.879, 0.629
65.419, 1.05, 0.871, 0.563
65.449, 5.095, -0.436, 0.94
65.475, 5.657, -0.815, 0.658
65.502, 5.11, 0.26, 1.173
65.53, 3.666, -0.107, 1.198
65.558, 3.392, -0.371, 1.109
65.586, 1.854, -0.31, 1.379
65.62, 0.359, 0.337, 1.722
65.656, -1.405, 2.149, 1.538
65.69, -5.331, 1.389, 1.18
65.723, -7.885, -1.664, -7.132
65.755, -4.282, -5.114, -4.125
65.788, 1.441, 1.102, -1.482
65.822, -0.688, 3.266, -1.959
65.854, 0.026, -0.639, -2.505
65.882, -0.308, -2.431, -0.344
65.909, 1.713, -1.218, -0.025
65.938, 2.665, 0.124, 0.547
65.968, 5.031, -0.712, 0.991
65.996, 4.379, -0.778, 0.968
66.024, 2.726, 0.611, 1.723
66.056, 2.369, 0.273, 1.307
66.084, 0.269, -0.04, 1.839
66.113, -0.536, -0.248, 2.232
66.142, -0.329, -0.303, 2.319
66.173, -2.696, -2.416, 2.22
66.202, -2.599, 1.907, 2.078
66.229, -2.043, 4.548, -2.005
66.258, -4.752, 8.196, -5.392
66.287, 0.481, -2.92, -5.044
66.314, -2.823, -4.082, -4.923
66.342, -5.426, -0.661, -2.55
66.374, -4.025, 2.677, 0.8
66.403, 0.965, 1.277, 0.728
66.432, 4.73, 0.83, 0.481
66.459, 6.233, 0.348, 1.74
66.49, 5.698, 0.167, 0.921
66.517, 5.677, 0.535, 1.276
66.545, 3.038, 0.167, 1.078
66.576, 1.881, 0.319, 1.175
66.603, 0.681, -0.022, 2.515
66.632, -0.6, 0.693, 2.23
66.662, -6.503, 1.994, 0.813
66.692, -4.98, 0.247, 1.725
66.721, -5.206, -0.622, -2.135
66.749, -4.098, -4.198, -6.399
66.778, 2.198, -0.033, -1.681
66.806, -0.596, 6.188, -1.246
66.836, -0.313, 1.259, -1.875
66.864, -0.953, -4.191, -0.416
66.894, 1.809, -2.26, -0.003
66.922, 4.829, -0.021, 0.579
66.952, 5.467, -0.185, 0.644
66.985, 3.182, -0.627, 1.552
67.015, 2.284, 0.048, 1.527
67.049, 2.164, 0.185, 1.457
67.08, 0.735, -0.093, 1.762
67.112, -0.811, -1.506, 2.683
67.142, -0.869, -2.727, 2.169
67.169, -2.048, -1.529, 1.908
67.201, -2.037, 1.959, 2.004
67.233, -4.516, 6.417, -4.75
67.264, 1.209, -4.436, -5.62
67.293, -1.597, -2.269, -5.427
67.322, -3.776, 0.113, -2.697
67.352, -3.862, 0.883, 0.691
67.383, 0.385, 1.806, 0.587
67.414, 3.776, 1.308, 0.431
67.444, 5.522, -0.975, 1.153
67.472, 5.074, -0.65, 0.429
67.501, 5.026, 0.06, 0.896
67.532, 2.962, 0.193, 0.977
67.56, 1.813, 0.145, 1.035
67.587, 1.113, -0.889, 2.021
67.617, 0.215, -0.439, 2.986
67.647, -5.019, 1.589, 1.439
67.677, -5.45, 0.451, 1.431
67.703, -8.149, -3.285, -11.641
67.733, -4.454, -6.913, -3.664
67.761, 1.225, -1.137, -2.77
67.789, -1.001, 5.763, -1.828
67.82, -1.381, 0.867, -1.638
67.851, 0.174, -4.58, -0.938
67.877, 1.065, -2.844, -0.064
67.906, 3.591, -0.337, 0.711
67.939, 5.149, 0.097, 0.744
67.97, 3.908, -1.37, 1.073
68.0, 2.874, -0.609, 1.1
68.028, 2.405, -0.237, 1.405
68.057, 0.991, -0.217, 1.594
68.088, -1.269, -1.316, 2.209
68.118, -1.309, -2.408, 2.522
68.149, -0.43, -0.372, 2.501
68.18, -2.144, 0.987, 2.012
68.211, -2.684, 2.967, -2.178
68.242, -3.085, 3.974, -6.083
68.273, 0.746, -1.401, -4.598
68.305, -5.393, -2.346, -3.057
68.34, -4.646, -0.295, -0.784
68.369, -1.939, 1.887, 1.388
68.396, 1.278, 1.207, 0.921
68.423, 5.558, -0.24, 1.564
68.454, 6.157, -1.003, 0.854
68.482, 4.88, -0.439, 1.381
68.509, 3.407, -0.501, 1.147
68.544, 1.242, -0.737, 1.019
68.573, 0.664, -1.158, 1.839
68.602, -0.425, 0.499, 2.738
68.629, -2.329, 2.475, 2.395
68.662, -5.546, 1.047, 1.164
68.692, -5.312, -1.564, -1.315
68.722, -4.782, -7.75, -4.965
68.75, 3.339, 2.57, 0.311
68.78, 0.346, 7.118, -2.268
68.811, -2.208, -1.921, -1.911
68.846, -0.111, -4.448, -0.953
68.879, 1.362, -2.942, 0.004
68.912, 4.49, -0.869, 0.793
68.942, 5.148, -1.317, 0.486
68.969, 4.048, -1.109, 0.952
68.999, 3.221, -0.053, 1.233
69.027, 2.092, -0.098, 1.46
69.059, 1.182, -0.447, 1.976
69.09, -0.381, -1.536, 3.283
69.118, -1.082, -2.538, 2.735
69.145, -3.916, -1.198, 2.361
69.172, -2.769, 0.672, 2.377
69.2, -2.579, 3.082, -2.024
69.232, 0.379, -0.069, -4.615
69.263, -2.197, -6.611, -5.606
69.291, -6.087, -5.467, -4.175
69.317, -4.701, 0.86, -1.921
69.344, -2.36, 1.465, 1.001
69.37, 2.177, 0.644, 1.242
69.397, 5.466, 0.834, 0.989
69.425, 6.281, -0.012, 1.424
69.453, 6.045, 0.022, 1.576
69.481, 5.352, 0.064, 1.992
69.516, 3.777, -0.141, 1.558
69.552, 1.875, -1.139, 1.751
69.586, -0.83, 1.319, 1.565
69.622, -6.315, 1.804, 0.759
69.656, -5.321, -0.282, 3.486
69.686, -3.548, -7.754, -5.775
69.722, 1.666, -0.887, -2.943
69.756, -0.155, 2.454, -1.558
69.79, -1.932, 1.973, -0.958
69.822, -1.241, -4.555, -0.279
69.86, 0.739, -3.233, 0.415
69.892, 4.659, -0.018, 1.247
69.92, 6.372, -0.081, 1.234
69.952, 4.413, -1.513, 1.564
69.983, 3.365, -0.052, 1.542
70.013, 2.049, -0.276, 1.39
70.042, 0.775, -0.722, 1.569
70.072, -1.033, -1.543, 2.771
70.103, -3.287, -1.377, 2.308
70.133, -4.424, -0.518, 3.094
70.165, -3.606, 6.924, -7.215
70.193, -2.078, 7.061, -5.01
70.221, 0.448, -3.01, -3.843
70.25, -4.758, -5.335, -5.732
70.276, -4.716, 1.525, -2.455
70.303, -2.274, 1.396, 1.28
70.329, 0.344, 1.198, 0.877
70.356, 4.415, 1.459, 0.516
70.384, 5.781, -0.646, 1.686
70.411, 5.854, -1.392, 0.708
70.438, 6.285, -0.752, 1.065
70.471, 3.196, -0.532, 1.239
70.501, 2.476, -0.114, 1.241
70.533, 0.815, -0.083, 2.447
70.566, -1.033, 1.529, 3.108
70.598, -2.725, 2.262, 2.534
70.628, -4.764, -0.537, 1.097
70.659, -8.056, -3.363, -12.295
70.689, 0.039, 0.021, -9.287
70.719, -0.283, 1.894, -1.589
70.746, -0.788, 4.655, -1.918
70.776, -1.913, 1.166, -0.854
70.81, 0.729, -3.62, -0.308
70.84, 1.955, -1.735, 0.741
70.866, 5.873, 0.683, 1.292
70.896, 6.748, 0.21, 0.716
70.925, 2.921, -0.405, 1.312
70.953, 2.582, 0.291, 1.4
70.98, 2.12, 0.533, 1.388
71.008, -0.888, -0.684, 2.063
71.037, -1.514, -1.607, 2.855
71.063, -2.702, -2.389, 1.345
71.096, -2.271, -0.696, 2.598
71.129, -2.074, 3.803, -2.295
71.162, 0.482, 3.255, -5.247
71.19, 1.006, -2.982, -5.256
71.219, -3.046, -6.1, -6.201
71.249, -2.458, 2.512, -0.168
71.279, -2.33, 3.095, 1.155
71.312, 2.571, 1.987, 0.516
71.341, 5.73, 1.123, 0.84
71.368, 5.971, -1.149, 0.829
71.394, 5.892, 0.121, 0.671
71.429, 3.965, 0.827, 1.214
71.466, 1.74, 0.837, 1.125
71.499, 1.244, 0.544, 1.303
71.533, -0.319, -0.361, 2.365
71.564, -7.084, 1.561, 0.766
71.599, -4.768, 0.029, 0.934
71.631, -4.97, -9.043, -6.34
71.664, 2.999, 4.2, -0.827
71.697, -0.063, 8.058, -2.581
71.729, -3.398, -1.791, -1.839
71.761, -2.604, -3.382, -0.615
71.792, 2.366, -1.87, -0.615
71.823, 4.352, -0.041, 0.208
71.855, 5.677, -1.123, 0.018
71.886, 3.541, -0.264, 1.067
71.918, 2.855, 0.69, 1.105
71.95, 1.794, -0.034, 1.01
71.978, 0.614, -0.615, 1.455
72.005, -0.55, -0.889, 3.277
72.036, -1.208, -1.425, 2.487
72.066, -3.782, 0.839, 2.434
72.1, -2.261, 1.042, 3.097
72.129, -4.139, 8.213, -7.127
72.157, 1.47, 3.438, -4.657
72.185, -4.068, -6.761, -5.763
72.215, -6.841, -2.244, -2.956
72.242, -4.023, 2.342, 0.8
72.269, -1.565, 1.735, 0.914
72.301, 1.488, 0.884, 0.773
72.328, 6.623, -0.228, 1.084
72.355, 6.573, -0.409, 0.914
72.383, 6.081, 0.289, 0.963
72.41, 4.379, 0.055, 1.144
72.438, 3.12, -0.286, 0.958
72.467, 0.986, -0.087, 1.511
72.497, 0.225, -0.833, 2.377
72.524, -3.352, 1.673, 2.557
72.554, -6.692, 1.652, 1.412
72.584, -7.209, -0.647, -4.505
72.613, -6.57, -7.666, -10.882
72.642, 2.515, 1.355, -1.226
72.672, 0.397, 5.749, -2.021
72.7, -1.252, 5.236, -1.754
72.728, -3.036, -2.294, -0.343
72.756, -0.199, -3.684, -0.364
72.785, 3.503, -0.22, 0.815
72.812, 6.096, -0.708, 0.808
72.842, 5.675, -1.532, 1.077
72.872, 3.717, -0.976, 0.93
72.9, 2.612, -0.291, 0.951
72.928, 1.145, -0.342, 2.138
72.959, -0.62, 0.519, 3.077
72.988, -1.368, -1.611, 2.646
73.016, -1.775, -3.66, 1.793
73.045, -2.173, 1.099, 3.888
73.076, -2.346, 2.77, 0.701
73.107, 0.397, 1.284, -5.471
73.139, 1.249, -5.135, -5.598
73.166, -6.141, -4.357, -4.761
73.195, -3.935, 0.836, -1.601
73.226, -2.136, 2.805, 1.647
73.255, 0.29, 2.244, 0.746
73.281, 4.029, 1.494, 0.558
73.312, 6.403, -1.125, 1.252
73.347, 6.117, 0.094, 0.589
73.378, 4.522, -0.06, 0.848
73.407, 2.428, -0.108, 0.913
73.436, 1.138, -0.047, 1.266
73.464, -0.516, 0.063, 2.854
73.495, -1.912, 1.739, 2.485
73.523, -6.18, 2.07, 0.771
73.551, -2.943, -0.182, 3.054
73.578, -5.126, -0.705, -7.337
73.609, -1.848, -3.535, -7.705
73.638, 0.874, 0.858, -2.049
73.666, -1.326, 4.689, -2.05
73.696, -1.328, 1.315, -1.613
73.725, 0.688, -3.304, -0.702
73.754, 1.587, -1.7, 0.317
73.782, 5.472, -0.952, 0.724
73.811, 6.558, -1.558, 0.336
73.844, 4.112, -0.764, 1.152
73.872, 3.248, 0.106, 1.128
73.901, 2.575, 0.071, 1.064
73.929, -0.112, -0.096, 1.699
73.96, -1.265, -0.762, 2.427
73.987, -1.458, -2.156, 2.122
74.018, -3.083, -2.513, 2.86
74.051, -1.634, 2.522, 0.663
74.081, -3.189, 5.874, -5.616
74.112, 3.001, -0.79, -4.438
74.141, -0.076, -3.119, -4.733
74.169, -6.846, -1.872, -2.907
74.201, -3.054, 3.748, 0.075
74.23, -1.462, 1.907, 0.841
74.26, 1.796, 0.896, 0.446
74.291, 6.373, -0.485, 1.225
74.322, 5.4, -0.935, 0.72
74.354, 4.454, -0.061, 1.317
74.387, 3.363, -0.462, 1.156
74.421, 2.558, -0.118, 1.457
74.455, 0.162, -0.412, 2.47
74.487, -3.375, 1.163, 1.87
74.52, -4.598, 0.115, 1.559
74.555, -5.993, -1.079, -4.425
74.59, -1.928, -5.792, -1.906
74.622, 4.819, 4.804, 0.381
74.655, -2.538, 5.376, -3.396
74.684, -1.851, -2.378, 0.045
74.713, 1.405, -1.28, -0.45
74.746, 2.546, 0.829, 0.784
74.774, 4.55, 0.061, 0.776
74.805, 5.973, -1.705, 1.405
74.834, 4.122, -0.58, 1.673
74.862, 2.293, 0.593, 1.884
74.889, 1.866, 0.286, 2.183
74.919, 0.612, 0.059, 1.842
74.949, -0.646, -1.31, 2.822
74.977, -1.856, -2.037, 2.128
75.008, -4.06, -1.268, 3.088
75.042, -3.069, -0.121, 1.908
75.074, -3.12, 10.921, -7.933
75.103, 1.396, -4.465, -4.769
75.13, -3.668, -7.16, -5.961
75.162, -2.892, 2.537, -0.476
75.188, -3.665, 3.04, 0.889
75.214, -2.173, 2.375, 1.845
75.241, 1.164, 1.428, 1.076
75.27, 6.849, 0.147, 1.662
75.297, 7.123, -1.081, 0.449
75.328, 5.065, -0.025, 0.994
75.355, 3.313, -0.018, 0.975
75.382, 0.728, -0.642, 1.262
75.409, -0.234, -1.192, 2.054
75.44, -0.48, -0.972, 2.476
75.466, -3.004, 1.338, 2.353
75.493, -5.43, 2.05, 1.219
75.52, -3.227, -0.108, 3.246
75.549, -6.884, -3.841, -15.081
75.577, -2.879, -6.896, -6.597
75.603, -1.189, 7.047, -1.731
75.633, -0.792, 4.054, -2.052
75.663, 0.153, -4.078, -0.334
75.692, 0.999, -4.088, -0.029
75.719, 2.354, -1.845, 0.961
75.751, 6.182, -0.424, 0.993
75.783, 5.259, -1.877, 0.97
75.817, 3.839, -1.619, 1.15
75.85, 2.304, 0.115, 2.148
75.881, 0.687, 0.672, 2.776
75.912, -0.664, -1.48, 2.69
75.94, -3.353, -2.988, 2.412
75.969, -3.543, 1.041, 3.324
76.0, -2.565, 3.116, -0.491
76.031, 0.675, 4.107, -5.866
76.068, -1.152, -5.754, -5.562
76.1, -6.727, -6.407, -4.594
76.133, -3.919, 3.2, 0.934
76.166, -0.75, 2.023, 1.224
76.196, 2.651, 1.27, 1.297
76.222, 6.139, -0.739, 0.977
76.249, 6.194, -0.601, 0.942
76.277, 5.742, 0.004, 1.333
76.302, 4.553, 0.196, 1.679
76.332, 2.605, 0.244, 1.454
76.36, 1.857, 0.28, 1.279
76.391, 0.658, -0.241, 1.937
76.424, -6.519, 1.042, 0.802
76.459, -5.731, 0.171, 1.696
76.487, -8.873, -5.084, -11.546
76.517, -2.956, -4.199, -3.341
76.545, -0.309, 6.467, -2.546
76.573, -2.813, 2.247, -2.414
76.602, -2.83, -1.732, -1.982
76.633, 0.311, -3.287, -0.897
76.662, 2.902, -0.867, 0.566
76.688, 5.17, -0.848, 0.851
76.718, 5.991, -0.759, 0.752
76.746, 3.817, -0.698, 1.244
76.774, 3.181, -0.455, 1.68
76.805, 1.667, 0.376, 1.964
76.839, 0.272, 0.115, 1.875
76.872, 0.094, -1.114, 2.352
76.904, -3.648, -2.581, 2.058
76.934, -3.163, 0.398, 3.737
76.962, -2.882, 6.51, -4.647
76.991, -2.582, 9.044, -6.067
77.022, 0.492, -4.245, -4.514
77.054, -4.773, -5.654, -4.832
77.082, -4.303, 2.221, -0.468
77.109, -3.157, 1.916, 0.192
77.139, -1.643, 0.868, 0.731
77.169, 5.99, -0.447, 0.7
77.195, 7.263, -0.605, 1.336
77.222, 6.002, 0.742, 1.428
77.25, 4.743, 0.656, 1.638
77.281, 3.605, 0.318, 1.457
77.308, 2.167, -0.111, 1.328
77.337, 1.821, -0.298, 2.032
77.368, -1.928, 1.218, 2.667
77.397, -5.314, 1.518, 1.637
77.422, -4.243, -0.25, 2.649
77.449, -6.74, -1.279, -9.171
77.476, -3.086, -5.925, -4.901
77.506, 0.992, 3.934, -1.49
77.536, -0.704, 5.574, -1.342
77.563, -3.558, -0.982, -1.56
77.594, -0.918, -3.846, -0.844
77.626, 2.299, -1.487, 0.176
77.657, 4.394, -0.393, 0.284
77.684, 6.116, -0.873, 0.333
77.712, 4.945, -1.341, 0.463
77.742, 2.503, -0.554, 0.643
77.769, 1.932, 0.195, 1.793
77.796, 0.365, 0.292, 2.541
77.827, -1.478, -0.528, 3.491
77.854, -1.198, -1.279, 2.714
77.882, -2.818, -0.563, 2.18
77.913, -2.128, 2.124, -0.399
77.946, -2.672, 7.385, -5.999
77.978, 1.841, -3.337, -5.763
78.008, -4.286, -7.203, -5.316
78.037, -5.978, -3.064, -3.01
78.065, -3.342, 3.771, 1.648
78.096, 0.293, 1.97, 0.845
78.125, 6.322, 0.599, 2.062
78.153, 5.712, -1.077, 1.331
78.182, 6.112, -0.005, 0.977
78.211, 4.601, 0.679, 0.903
78.24, 3.625, 1.729, 0.88
78.27, 1.434, -0.723, 1.526
78.3, 0.56, -1.583, 2.345
78.337, -3.036, 1.737, 2.594
78.364, -4.486, -0.018, 1.517
78.394, -6.339, -1.963, -7.5
78.422, -0.587, -2.024, -5.59
78.45, 2.527, 2.949, -1.077
78.479, 0.272, 6.547, -2.331
78.507, -2.048, -0.986, -2.091
78.536, -2.941, -2.593, -0.837
78.564, 1.777, -2.444, -0.148
78.596, 2.457, -0.487, 0.484
78.623, 6.087, -1.171, 0.741
78.653, 5.721, -2.158, 0.305
78.684, 2.028, -0.495, 0.947
78.715, 2.572, 0.408, 1.716
78.745, 0.381, 0.542, 2.901
78.772, -0.953, 0.204, 3.672
78.802, -1.426, -1.494, 2.459
78.836, -1.796, -0.012, 2.788
78.87, -1.776, 5.571, 0.343
78.902, -1.745, 1.574, -5.551
78.929, 1.374, -6.952, -7.363
78.956, -1.558, -8.903, -6.512
78.983, -3.364, 0.201, -1.905
79.01, -4.528, 3.492, 1.034
79.039, -3.041, 1.929, 2.127
79.069, 5.31, 1.383, 0.996
79.102, 5.74, -0.83, 1.5
79.13, 6.271, -0.242, 0.685
79.16, 5.718, -0.236, 1.262
79.188, 3.119, 0.732, 0.916
79.22, 2.226, -0.256, 1.03
79.252, 0.73, -2.396, 3.025
79.278, -0.805, -0.479, 2.926
79.306, -7.116, 2.892, -0.035
79.338, -2.27, -1.089, 4.747
79.365, -3.286, -5.066, -7.695
79.392, -2.4, -3.615, -5.994
79.422, 0.086, 3.343, -1.522
79.451, -1.836, 2.343, -2.055
79.477, -2.049, -1.962, -1.045
79.503, -0.574, -2.86, -0.211
79.537, 1.105, -2.135, 0.18
79.568, 4.644, 0.879, 1.2
79.6, 5.389, 0.823, 1.189
79.631, 4.336, -0.826, 1.112
79.662, 2.279, -0.277, 0.785
79.69, 1.72, -0.091, 1.592
79.72, 0.363, 0.54, 2.639
79.748, -0.67, -0.667, 3.363
79.779, -1.92, -3.254, 2.738
79.808, -2.482, -0.217, 3.786
79.838, -1.58, 2.895, 1.333
79.866, -3.241, 7.393, -5.391
79.893, 0.781, -2.752, -5.805
79.923, -3.652, -7.24, -5.327
79.951, -4.045, -0.332, -1.397
79.979, -3.298, 3.619, 0.332
80.008, -0.548, 2.385, 0.735
80.038, 3.269, 0.979, 0.515
80.065, 5.448, -1.164, 1.408
80.095, 5.698, -1.046, 0.502
80.125, 6.381, -0.059, 0.871
80.155, 3.167, 0.671, 0.951
80.184, 1.503, 0.135, 1.361
80.21, 0.722, -0.501, 2.07
80.238, 0.196, -1.079, 2.917
80.263, -3.366, 2.434, 2.353
80.292, -6.073, 1.548, 1.956
80.318, -5.76, -0.5, 0.826
80.346, -4.34, -6.491, -4.703
80.374, 1.997, 0.984, -3.0
80.402, 2.74, 4.511, -0.483
80.428, -1.865, 1.0, -2.279
80.456, -2.892, -3.655, -2.262
80.486, 0.811, -2.345, -0.826
80.518, 1.805, -1.736, -0.098
80.544, 4.294, -0.32, 0.633
80.572, 5.718, -1.269, 0.613
80.6, 4.617, -0.86, 0.676
80.63, 3.143, -0.041, 1.21
80.662, 2.572, -0.394, 1.354
80.693, 0.255, 0.38, 2.651
80.72, -1.31, -0.168, 3.022
80.751, -1.925, -2.45, 2.387
80.78, -2.913, -2.019, 2.376
80.807, -1.474, 2.673, 1.336
80.838, -1.281, 4.656, -3.508
80.866, -0.394, -0.398, -5.742
80.894, -2.638, -5.695, -6.656
80.921, -5.249, -4.457, -4.726
80.949, -2.017, 2.058, 0.422
80.976, -2.058, 1.831, 0.926
81.002, 2.201, 0.838, 0.878
81.035, 4.849, -0.254, 0.456
81.07, 5.757, -0.997, 0.657
81.102, 5.135, 0.091, 1.133
81.137, 3.58, -0.476, 1.231
81.169, 2.136, -0.333, 0.995
81.202, 0.579, -0.672, 2.51
81.232, -0.818, 0.799, 2.724
81.261, -3.424, 2.071, 1.997
81.288, -3.97, -0.238, 2.142
81.32, -4.742, -0.87, -3.083
81.353, -3.088, -4.422, -6.457
81.381, 0.927, -0.325, -5.282
81.411, -1.057, 4.273, -1.065
81.442, -0.624, 3.083, -1.756
81.469, -1.457, -3.721, -0.118
81.5, 0.282, -3.76, -0.407
81.532, 4.322, -0.194, 0.905
81.563, 5.115, -1.184, 0.531
81.595, 3.935, -1.552, 0.903
81.624, 2.218, 0.683, 1.625
81.655, 1.956, 0.67, 1.326
81.689, -0.262, -0.158, 2.316
81.719, -1.089, -0.912, 2.611
81.749, -0.393, -2.993, 1.104
81.777, -0.772, -1.792, 2.055
81.809, -4.079, 6.041, -4.6
81.842, -7.052, 10.811, -5.909
81.873, -0.344, -8.042, -5.869
81.904, -2.65, 0.563, -2.272
81.933, -2.608, 3.652, -0.101
81.962, -1.28, 2.723, 1.508
81.99, 0.916, 1.461, 0.38
82.02, 4.027, 0.542, 0.271
82.049, 5.507, -1.277, 0.942
82.077, 4.995, -0.546, 0.263
82.109, 2.922, -0.425, 1.172
82.139, 2.267, -1.286, 0.882
82.173, 1.328, -1.12, 1.469
82.201, 0.873, -0.409, 2.174
82.229, -0.913, 2.679, 2.329
82.261, -3.905, 2.943, 1.615
82.291, -2.1, -1.631, 3.42
82.318, -5.851, -0.617, -5.719
82.347, -1.017, -2.173, -6.013
82.376, -0.37, -0.378, -4.954
82.402, -0.68, 2.937, -0.84
82.429, 0.744, 2.539, -0.993
82.459, -1.971, -2.777, -0.367
82.486, 1.282, -3.796, -0.168
82.514, 2.805, -2.18, 0.466
82.544, 4.963, -0.564, 1.157
82.572, 3.604, -0.38, 1.284
82.601, 2.126, -0.446, 1.488
82.628, 1.879, 0.269, 1.78
82.662, 1.371, 0.037, 1.995
82.69, 1.333, -0.079, 2.516
82.717, 0.351, -0.852, 2.393
82.749, -3.979, -1.35, 1.828
82.781, -1.518, 1.167, 1.986
82.811, -3.185, 3.42, -6.695
82.839, -1.301, 1.375, -6.803
82.869, -1.143, -3.914, -5.253
82.904, -5.413, -0.397, -0.924
82.936, -3.919, 2.316, 0.837
82.967, 0.029, 2.61, 0.462
83.0, 3.446, 1.54, 0.072
83.034, 5.02, -0.783, 1.646
83.067, 3.378, -0.151, 1.477
83.101, 2.122, 0.009, 1.367
83.137, 2.083, -1.463, 1.06
83.169, 2.974, -2.166, 2.877
83.201, 1.316, -0.123, 2.763
83.234, -6.391, 1.557, -0.047
83.262, -7.075, -3.457, -6.043
83.288, -7.218, -9.153, -8.851
83.322, -1.234, 0.118, -3.875
83.352, -0.176, 6.604, -2.398
83.382, -2.632, -5.26, -2.004
83.411, -0.507, -3.531, -0.38
83.437, 0.653, -2.722, -0.549
83.465, 3.163, -1.079, 0.488
83.492, 5.156, -1.326, 0.5
83.519, 5.401, -1.488, 0.557
83.549, 2.522, -0.252, 1.896
83.577, 2.041, 0.521, 1.938
83.603, 0.805, -1.222, 1.185
83.631, -0.062, -1.49, 1.529
83.66, -0.126, -1.11, 2.31
83.688, -1.609, -3.459, 2.754
83.72, -3.402, -2.678, 2.65
83.747, -3.273, 3.247, -2.302
83.774, -5.492, 12.484, -5.909
83.801, -0.659, -0.156, -4.802
83.83, -0.668, -7.18, -5.362
83.857, -2.949, -6.638, -4.134
83.886, -4.275, 4.882, 0.547
83.913, -3.17, 2.907, 1.766
83.94, -1.061, 0.705, 1.561
83.969, 5.668, 0.957, 1.582
83.996, 4.988, -0.909, 1.654
84.022, 5.486, -0.764, 1.224
84.053, 4.58, -0.464, 1.595
84.081, 3.362, -0.215, 1.449
84.109, 1.248, -0.461, 1.626
84.142, 1.047, -1.216, 2.204
84.176, -1.408, 2.196, 2.362
84.207, -5.331, -0.336, 0.917
84.236, -3.466, -0.888, 3.386
84.262, -2.858, -8.069, -4.549
84.292, 1.736, -1.121, -6.875
84.322, -3.408, 3.517, -2.29
84.351, -1.912, 0.617, -1.888
84.379, -3.298, 1.364, -0.769
84.409, 1.134, -3.326, -0.27
84.44, 2.325, -1.778, 0.408
84.468, 5.801, -0.731, 0.85
84.499, 5.475, -0.783, 1.034
84.529, 2.911, -0.947, 1.187
84.56, 2.472, -0.409, 1.376
84.591, 1.455, -0.161, 2.26
84.618, 0.759, -0.092, 2.918
84.649, -1.112, -3.037, 1.572
84.677, -2.748, -1.969, 1.343
84.706, -0.949, 2.629, 2.294
84.735, -3.172, 4.187, -3.189
84.763, 1.247, -0.71, -5.429
84.795, 0.09, -3.788, -6.11
84.822, -3.976, -4.716, -4.59
84.85, -4.679, -0.495, -0.698
84.877, -4.701, 2.022, 0.153
84.904, 0.217, 2.304, 0.534
84.932, 4.442, 1.1, 0.496
84.962, 5.105, -0.043, 0.38
84.989, 5.379, -0.043, 0.575
85.021, 4.956, 0.165, 0.841
85.053, 2.872, 0.065, 1.107
85.085, 2.153, -0.075, 1.578
85.117, 3.274, -1.283, 1.531
85.152, 0.152, 1.092, 2.858
85.183, -5.414, 0.675, 1.4
85.213, -5.061, -0.069, 2.246
85.24, -9.541, -2.871, -9.674
85.267, 1.6, 0.433, -2.117
85.3, 0.52, 3.429, -2.042
85.335, -1.923, -0.704, -1.485
85.365, -1.421, -4.986, -0.75
85.394, 1.026, -4.598, -0.953
85.421, 2.029, -2.51, 0.23
85.452, 4.514, -0.49, 0.731
85.482, 4.853, -0.764, 0.832
85.508, 4.154, -0.118, 1.398
85.538, 3.102, 0.772, 1.876
85.57, 1.132, -0.249, 1.638
85.602, 0.735, -0.35, 2.129
85.635, 1.421, -0.609, 2.704
85.669, -1.902, -1.723, 1.985
85.702, -0.599, 1.998, -0.275
85.735, -3.665, 3.652, -5.17
85.762, 0.55, -3.769, -5.975
85.789, -3.958, -5.65, -7.105
85.819, -8.008, -4.634, -4.508
85.852, -5.044, 1.54, 0.909
85.88, -2.734, 2.673, 1.631
85.908, 4.003, 1.379, 0.726
85.936, 5.137, -0.914, 1.035
85.965, 6.735, -0.09, 1.025
85.991, 6.35, 1.142, 1.345
86.022, 4.889, 1.841, 1.399
86.051, 2.559, -0.399, 1.209
86.077, 2.586, -1.941, 1.567
86.106, 0.231, -0.602, 3.444
86.139, -3.638, 1.96, 2.942
86.169, -4.7, -2.118, 5.766
86.197, -7.537, -0.598, -6.99
86.225, -0.385, -3.308, -6.789
86.256, 1.074, 1.006, -2.473
86.289, -1.302, 3.439, -1.653
86.319, -1.096, 1.867, -1.148
86.348, -0.612, -4.01, -0.393
86.376, 0.924, -3.1, 0.322
86.406, 5.962, -0.493, 0.884
86.442, 6.08, 0.003, 0.839
86.468, 2.777, -1.268, 1.033
86.494, 2.246, -0.785, 1.429
86.522, 0.4, 0.123, 1.826
86.55, -0.497, 0.435, 2.034
86.576, -1.136, -0.217, 2.526
86.605, -4.198, -1.604, 4.675
86.632, -4.917, 1.51, 4.459
86.663, -4.378, 1.308, -0.684
86.691, -2.891, 7.151, -10.731
86.717, 2.934, 3.228, -3.997
86.742, -1.865, -4.478, -4.357
86.767, -6.585, -4.474, -4.641
86.795, -2.73, 0.386, -1.453
86.826, -1.556, 0.66, 0.705
86.854, 0.87, 1.066, 1.198
86.881, 4.049, 0.992, 1.484
86.912, 5.52, 0.116, 1.708
86.942, 6.664, -0.291, 1.432
86.969, 5.972, -0.717, 1.448
86.996, 4.933, -0.894, 1.362
87.026, 1.762, -0.51, 1.656
87.056, 0.405, -0.517, 1.945
87.083, -3.047, 0.838, 2.494
87.113, -7.672, 0.471, 1.598
87.144, -3.915, -0.712, 4.709
87.172, -6.894, -0.892, -10.479
87.2, -1.737, -7.516, -7.064
87.229, 1.965, 0.586, -1.615
87.258, 0.717, 5.763, -1.38
87.284, -1.297, 0.605, -1.305
87.314, -3.121, -2.291, -0.371
87.344, 1.138, -2.377, -0.157
87.37, 3.509, -0.395, 0.444
87.401, 5.766, -0.258, 0.867
87.43, 4.101, -1.421, 0.742
87.457, 2.329, -0.993, 0.899
87.482, 1.801, -0.397, 1.451
87.512, 1.435, -0.282, 1.809
87.539, 0.103, 0.286, 2.027
87.565, -1.092, -1.13, 2.594
87.598, -2.977, -2.161, 2.362
87.624, -3.716, 0.818, 3.816
87.652, -2.515, 1.687, 1.838
87.68, -2.153, 2.411, -6.307
87.705, 1.884, 0.519, -4.852
87.731, -1.342, -4.165, -5.049
87.756, -4.213, -3.955, -4.314
87.782, -2.973, 1.744, -0.517
87.808, -2.765, 1.417, 0.302
87.834, -0.997, 1.438, 0.592
87.86, 2.537, 1.1, 1.008
87.884, 5.434, 0.533, 1.857
87.909, 5.194, -0.18, 1.102
87.935, 5.382, -0.132, 0.754
87.961, 5.36, -0.112, 0.906
87.986, 3.077, -0.767, 1.003
88.012, 1.891, -1.16, 0.988
88.041, 1.049, -1.087, 1.548
88.068, -1.763, 0.54, 1.507
88.097, -2.054, 1.699, 1.307
88.123, -4.082, 1.115, 1.702
88.154, -3.533, 0.301, 4.099
88.185, -3.824, -3.311, -6.033
88.213, 0.452, -0.922, -5.825
88.241, 2.268, -0.663, -3.314
88.271, -1.829, 2.581, -1.617
88.297, -1.347, 0.749, -2.266
88.323, -1.78, -1.954, -1.19
88.354, 1.33, -2.281, -0.081
88.382, 2.824, -0.952, 0.232
88.411, 4.151, -0.359, 0.953
88.438, 3.887, -0.767, 1.079
88.466, 3.333, -0.025, 1.644
88.493, 2.914, 0.547, 1.301
88.522, 1.684, -0.924, 1.189
88.55, 0.79, -0.03, 1.972
88.577, 0.399, 0.024, 3.25
88.602, -2.159, -1.529, 2.016
88.628, -4.236, -1.029, 2.063
88.656, -4.225, 0.902, 3.414
88.682, -3.836, 7.915, -5.375
88.709, -0.226, -0.937, -4.276
88.739, 1.683, -3.391, -4.529
88.766, -1.787, -3.585, -3.01
88.791, -3.143, 1.282, -1.548
88.82, -3.01, 4.294, 0.028
88.848, -1.768, 1.096, 0.842
88.875, 1.256, 1.212, 0.659
88.903, 4.925, 0.148, 1.424
88.93, 4.948, -0.654, 0.858
88.958, 4.818, -0.435, 0.572
88.985, 3.122, -0.048, 0.827
89.014, 2.838, 0.249, 1.093
89.042, 2.18, -0.516, 1.677
89.072, 1.702, -1.223, 2.418
89.099, -0.209, 0.271, 2.161
89.126, -5.403, 0.568, 0.848
89.155, -3.998, -0.497, 2.128
89.182, -6.582, 0.698, -7.122
89.214, -3.75, -2.104, -3.487
89.24, 0.116, -0.309, -5.388
89.265, 0.4, 3.429, -0.888
89.293, -1.937, 1.458, -1.963
89.32, -3.114, -0.105, -1.252
89.347, 0.91, -1.004, 0.582
89.376, 2.152, 0.743, 0.941
89.402, 2.876, -0.189, 0.755
89.43, 3.647, -1.116, 0.976
89.46, 3.117, -1.407, 1.072
89.485, 2.387, 0.376, 1.408
89.511, 2.109, -0.089, 1.087
89.537, 1.916, -0.394, 1.77
89.564, 0.753, 0.01, 2.638
89.589, -0.246, -2.304, 1.905
89.616, -2.39, -3.081, 0.941
89.642, -2.877, -1.552, 1.332
89.668, -3.882, 4.0, -0.052
89.697, -7.163, 8.082, -2.83
89.724, 0.814, -4.805, -4.023
89.752, 1.267, -3.65, -3.976
89.781, 1.491, -3.233, -4.012
89.812, -2.609, 4.318, -0.13
89.844, -1.443, 0.885, 1.615
89.873, 0.04, 0.58, 0.422
89.9, 3.168, 0.87, 0.288
89.934, 4.608, -0.528, 0.849
89.968, 4.26, -0.632, 0.931
90.002, 2.536, -0.083, 1.115
90.036, 2.038, -0.005, 1.3
90.071, 0.715, -0.658, 2.106
90.105, -1.096, 0.106, 2.096
90.132, -3.683, 2.549, 1.405
90.163, -3.249, -0.653, 3.844
90.192, -2.819, -0.703, 1.711
90.221, -3.763, -4.217, -8.391
90.255, 0.038, 0.08, -4.441
90.28, -0.731, 2.765, -2.175
90.306, -2.737, 1.822, -1.232
90.336, -2.843, -2.96, -0.344
90.362, -1.577, -3.985, -1.494
90.387, 1.643, -0.828, 0.364
90.417, 4.4, 0.832, 0.86
90.442, 5.107, -1.294, 0.68
90.472, 3.777, -1.933, 1.159
90.501, 2.473, -1.414, 1.434
90.528, 1.663, -1.508, 1.348
90.555, 1.214, -1.217, 2.441
90.585, 1.058, -0.734, 3.163
90.613, -2.299, -0.296, 2.076
90.642, -4.763, -1.16, 1.749
90.668, -3.723, 4.133, -2.676
90.696, -4.755, 8.825, -5.532
90.723, 1.574, -4.446, -4.65
90.753, -1.074, -6.541, -4.71
90.781, -4.145, -3.825, -3.044
90.808, -4.894, 5.197, -0.275
90.841, -3.366, 2.234, 0.187
90.873, 3.407, 1.624, 0.643
90.902, 4.932, -0.73, 1.361
90.93, 4.735, -0.491, 0.585
90.958, 5.331, -0.092, 0.725
90.99, 4.225, -0.833, 0.99
91.019, 3.478, -0.846, 1.249
91.048, 1.851, -0.391, 1.804
91.075, 1.478, -0.39, 2.146
91.112, -1.81, 0.758, 3.315
91.146, -3.355, 0.168, 2.46
91.176, -5.705, -0.371, -4.875
91.203, -1.946, -2.805, -5.928
91.23, 1.843, 1.155, -1.927
91.264, -1.554, 4.428, -2.147
91.299, -2.138, -0.566, -2.826
91.333, -1.581, -3.895, -2.036
91.362, 1.349, 0.244, -0.262
91.391, 3.571, 1.101, 0.398
91.417, 4.597, 0.398, 0.031
91.445, 3.534, -1.165, 1.059
91.473, 2.189, 0.128, 1.174
91.5, 1.91, 0.055, 1.443
91.532, 1.226, -0.384, 1.619
91.562, 1.123, -0.521, 2.29
91.587, 1.492, -1.407, 2.163
91.615, 0.518, -2.462, 1.847
91.647, -2.449, 0.138, 1.105
91.674, -3.865, 3.82, -0.842
91.702, -4.275, 0.145, -2.534
91.728, -1.907, -5.564, -4.644
91.756, -1.041, -3.831, -4.829
91.783, -0.746, 2.421, -1.073
91.815, -2.318, 4.245, -0.316
91.847, 0.019, 2.528, 0.232
91.876, 1.111, 1.804, -0.12
91.903, 2.712, 0.13, 0.78
91.932, 3.808, -0.296, 0.47
91.963, 3.525, 0.103, 0.612
91.992, 2.83, -0.226, 0.716
92.023, 3.067, -0.651, 0.647
92.051, 3.03, -0.163, 1.04
92.081, 2.202, 0.039, 1.25
92.11, 0.214, -0.55, 1.175
92.139, -0.714, 0.565, 1.446
92.169, -4.015, 0.113, 1.486
92.202, -5.119, 1.355, 2.201
92.233, -6.703, 1.079, -4.133
92.265, 1.122, 0.301, -3.186
92.293, 2.508, 0.579, -1.493
92.322, 1.237, 1.711, -1.873
92.352, -0.7, 0.157, -1.336
92.383, -1.461, -2.517, -0.052
92.415, 0.677, -1.136, 0.361
92.442, 3.309, -0.818, 0.599
92.469, 2.952, -1.066, 0.799
92.502, 2.791, -0.92, 1.386
92.53, 2.637, -0.133, 1.404
92.556, 2.198, -0.232, 1.212
92.584, 0.924, -1.356, 1.763
92.612, -0.48, -0.743, 2.599
92.64, -0.418, -0.288, 2.534
92.669, -1.957, -2.017, 2.553
92.699, -3.753, -1.004, 3.234
92.725, -4.352, 8.215, -4.636
92.753, -1.822, 2.462, -2.221
92.782, -0.289, -5.084, -5.081
92.809, -0.854, -2.741, -5.288
92.84, -1.828, -0.431, -2.913
92.873, -2.108, 1.717, -0.438
92.898, -1.878, 1.052, 0.43
92.924, 2.833, 0.963, 0.834
92.953, 5.008, 0.693, 1.4
92.982, 4.37, -0.114, 1.71
93.01, 5.387, -0.17, 1.229
93.039, 4.105, -0.477, 1.321
93.069, 2.311, -0.092, 1.277
93.099, 1.529, -0.183, 1.577
93.127, 0.449, 0.082, 2.319
93.155, -0.18, 1.594, 2.07
93.186, -6.439, 1.682, 1.007
93.213, -4.041, -0.261, 4.351
93.24, -6.108, 0.416, -0.557
93.269, 0.334, -3.692, -1.806
93.296, 2.666, -0.625, -6.369
93.327, -2.625, 2.902, -1.846
93.355, -0.726, 1.904, -1.738
93.382, -0.784, -3.125, -0.363
93.41, 0.949, -2.93, -0.065
93.437, 2.468, -1.5, 0.489
93.463, 5.208, -0.389, 0.763
93.495, 5.002, -0.489, 0.661
93.528, 3.26, -0.204, 1.683
93.556, 2.551, 0.361, 1.857
93.582, 1.006, 0.489, 2.107
93.612, 0.41, 0.666, 2.296
93.645, -0.498, -2.401, 1.866
93.673, -3.586, -2.849, 1.25
93.699, -4.526, -0.776, 2.061
93.726, -6.586, 11.755, -4.604
93.753, -2.599, 2.544, -4.848
93.783, -0.882, -7.19, -6.115
93.811, -1.036, -8.929, -4.692
93.842, -3.134, 4.134, -0.238
93.868, -2.797, 4.022, 1.242
93.894, -1.487, 1.231, 1.486
93.921, 0.507, 0.627, 0.685
93.95, 4.86, -0.01, 1.995
93.978, 4.824, -0.87, 0.762
94.005, 5.334, 0.039, 1.23
94.033, 3.932, -0.065, 1.129
94.063, 2.231, -0.458, 1.47
94.092, 1.223, -0.555, 1.734
94.12, 0.827, -0.52, 1.969
94.148, -1.082, 1.693, 2.235
94.174, -4.788, 2.826, 1.359
94.202, -4.601, -0.257, 2.551
94.229, -8.354, -2.022, -7.086
94.255, -3.829, -7.421, -5.103
94.279, 2.121, -0.112, -3.155
94.306, -1.563, 4.384, -1.795
94.336, -1.218, 1.723, -1.866
94.363, -1.838, -3.273, -0.424
94.389, 0.199, -3.42, -0.779
94.416, 1.95, -1.819, 0.277
94.445, 5.019, -1.147, 0.82
94.472, 5.524, -1.256, 0.607
94.501, 4.854, -1.277, 0.847
94.529, 2.566, -0.299, 1.418
94.555, 2.047, -0.199, 1.415
94.585, 0.18, -0.227, 2.63
94.616, 0.183, -0.067, 3.55
94.642, 0.384, -1.35, 2.926
94.671, -3.682, -1.071, 2.756
94.698, -2.419, 2.032, 1.05
94.726, -5.488, 12.442, -5.147
94.756, 0.731, -2.189, -4.885
94.784, -3.106, -9.524, -6.227
94.812, -4.844, -3.96, -4.151
94.842, -3.412, 2.854, -1.519
94.869, -2.875, 2.026, 2.067
94.901, 0.881, 1.496, 1.194
94.929, 5.732, 1.188, 1.909
94.959, 4.533, -0.977, 1.008
94.988, 5.914, -0.752, 0.947
95.017, 5.076, -0.738, 1.16
95.045, 2.889, -0.239, 1.328
95.076, 2.583, -0.017, 1.321
95.105, 0.861, 0.746, 2.209
95.134, -2.823, 2.51, 1.886
95.162, -6.758, 2.078, 0.44
95.188, -5.961, 0.971, -1.428
95.22, -8.537, -3.441, -12.746
95.246, 3.473, -0.58, -0.607
95.273, 0.176, 5.181, -2.291
95.302, -2.417, 6.509, -1.342
95.327, -4.047, -1.254, -1.127
95.355, -1.938, -3.665, -0.693
95.382, 1.763, -0.951, 0.127
95.41, 3.782, -0.77, 0.532
95.439, 5.806, -1.291, 0.458
95.466, 4.906, -1.395, 0.15
95.493, 3.694, -0.346, 1.168
95.523, 1.974, 0.738, 2.131
95.552, 1.685, 0.822, 1.906
95.58, 0.161, 1.085, 2.99
95.609, 0.525, -0.042, 2.61
95.638, -0.521, -1.814, 1.629
95.668, -2.893, -0.328, 2.779
95.698, -1.956, -0.023, 1.34
95.725, -2.064, 7.249, -6.131
95.756, 0.808, 2.2, -6.092
95.784, -4.395, -5.355, -5.789
95.813, -7.265, -4.487, -2.301
95.845, -3.223, 3.56, 1.671
95.875, -1.812, 2.56, 1.259
95.903, 5.359, 1.161, 0.805
95.932, 6.682, -0.489, 1.686
95.962, 5.705, 0.113, 0.869
95.995, 5.45, 0.535, 1.442
96.022, 3.064, -0.225, 1.733
96.049, 2.146, -0.299, 2.094
96.079, 1.441, -0.016, 2.177
96.109, 0.215, 1.064, 2.767
96.139, -4.166, 2.057, 1.953
96.168, -3.662, -0.985, 1.059
96.196, -8.19, -3.592, -10.438
96.227, -0.409, -1.366, -5.003
96.255, 1.647, 5.415, -0.492
96.283, -1.484, 2.671, -1.057
96.312, -3.307, -2.359, -1.66
96.346, -0.353, -3.801, -1.132
96.375, 1.293, -2.141, 0.162
96.403, 4.641, -0.414, 1.299
96.432, 5.498, -0.515, 1.141
96.462, 2.544, -0.744, 1.628
96.489, 2.36, -0.301, 2.189
96.517, 2.958, 0.334, 1.889
96.548, 1.464, -0.513, 2.433
96.582, 1.137, -1.791, 3.165
96.612, -0.893, -1.524, 4.184
96.641, -3.959, 0.685, 3.055
96.669, -2.843, 4.617, -2.952
96.701, -4.572, 11.438, -6.209
96.732, -0.167, -5.363, -5.756
96.76, -5.512, -8.137, -5.421
96.789, -4.228, 2.605, -0.908
96.821, -1.993, 4.918, 0.85
96.85, -0.202, 1.653, 0.669
96.878, 2.942, 1.238, 0.639
96.906, 5.981, -0.643, 1.282
96.935, 6.233, -0.239, 0.786
96.966, 4.817, 0.424, 1.321
96.995, 3.806, 0.219, 1.182
97.023, 2.367, 0.553, 1.738
97.051, 1.687, 0.354, 2.338
97.08, 0.226, 0.309, 2.253
97.108, -4.986, 1.169, 1.597
97.137, -5.406, 0.661, 1.622
97.168, -9.264, -1.615, -10.649
97.196, -3.401, -6.452, -3.012
97.223, 0.787, 3.228, -2.086
97.252, -0.961, 5.4, -2.052
97.282, -2.417, -1.139, -1.916
97.309, -2.528, -1.995, -0.477
97.339, 0.562, -3.322, -1.038
97.368, 3.329, -0.091, 0.781
97.396, 5.714, -0.703, 0.823
97.423, 4.384, -1.451, 1.221
97.453, 2.989, -0.717, 1.372
97.481, 2.684, 0.272, 1.425
97.509, 1.864, 0.475, 1.519
97.539, 0.522, 0.22, 2.159
97.572, -0.268, -0.431, 3.436
97.602, -3.272, -1.281, 1.381
97.63, -3.703, -0.255, 1.825
97.661, -3.166, 3.026, -2.978
97.687, -0.067, -2.27, -4.932
97.714, -0.137, -8.525, -5.718
97.744, -3.832, 0.186, -3.894
97.774, -2.963, 5.436, -1.041
97.804, -2.871, 0.832, 1.115
97.834, 0.131, 1.107, 0.248
97.862, 6.283, 0.563, 1.549
97.889, 4.852, -1.368, 1.179
97.916, 5.49, -0.229, 0.693
97.942, 4.092, 0.151, 1.282
97.969, 3.226, -0.307, 1.137
97.996, 3.251, -0.363, 1.137
98.023, 1.793, -0.007, 1.956
98.051, 0.657, 0.063, 1.848
98.078, -1.343, 0.934, 1.647
98.11, -6.044, 0.216, 2.457
98.14, -4.736, 0.054, 3.506
98.168, -6.906, -5.913, -16.751
98.196, 2.115, -6.175, -1.294
98.227, 0.252, 5.688, -3.478
98.256, -2.744, 5.593, -3.163
98.284, -4.803, -2.718, -1.828
98.313, -0.607, -1.264, -1.142
98.346, 1.937, -0.164, 0.411
98.377, 3.44, -1.028, 0.583
98.404, 4.174, -1.751, 0.605
98.433, 3.82, -0.723, 1.125
98.461, 4.17, -0.295, 1.509
98.492, 3.687, -0.056, 1.799
98.521, 2.826, 0.724, 2.526
98.55, 1.003, 1.225, 1.984
98.581, 0.534, 0.071, 1.976
98.612, 0.458, -1.53, 2.48
98.641, -1.367, -1.439, 1.776
98.669, -1.329, 1.313, 0.576
98.7, -2.218, 3.426, -5.314
98.73, -0.471, 1.129, -8.501
98.756, -7.028, -3.882, -7.428
98.783, -4.983, -2.701, -2.317
98.812, -1.527, 0.904, -1.79
98.841, -1.534, 0.268, -0.622
98.87, 1.302, -0.322, -0.304
98.899, 3.64, -0.433, -0.126
98.929, 7.646, 0.361, 0.991
98.957, 6.256, -0.228, 1.152
98.984, 2.23, 0.315, 1.121
99.015, 1.209, 0.306, 1.097
99.044, -0.004, -0.66, 2.346
99.072, -0.667, -1.126, 2.905
99.102, -2.198, 1.582, 2.927
99.132, -3.919, 2.102, 2.608
99.16, -5.141, 1.596, 1.542
99.19, -3.651, 0.66, -3.76
99.216, -2.536, -3.795, -11.083
99.246, -1.617, -0.563, -3.422
99.272, -1.7, 2.833, -1.526
99.301, -0.891, 4.106, -1.714
99.33, -1.186, -3.652, -0.809
99.357, 0.359, -4.959, -0.727
99.385, 3.887, -1.571, 0.711
99.413, 5.659, -0.261, 0.417
99.44, 5.302, -0.089, 0.35
99.472, 3.058, -1.115, 0.868
99.502, 1.768, 0.12, 1.136
99.532, 1.334, 0.613, 1.627
99.561, 0.015, 0.667, 2.156
99.59, -0.645, -2.413, 1.662
99.622, -2.644, -4.49, 1.299
99.654, -2.28, 0.476, 3.581
99.682, -4.42, 11.872, -7.447
99.709, -0.443, 4.864, -4.778
99.74, 0.688, -4.837, -5.523
99.773, -3.523, -4.673, -5.079
99.802, -3.266, -1.013, -2.597
99.832, -2.63, 2.89, 0.432
99.862, -1.813, 2.112, 0.64
99.889, 4.763, 0.584, 0.85
99.918, 4.981, -0.351, 1.492
99.947, 4.869, -0.101, 0.721
99.974, 4.297, -0.318, 1.081
100.006, 3.576, -0.56, 0.688
100.034, 3.726, -0.574, 1.111
100.062, 1.414, 0.44, 1.724
100.09, 0.145, 1.006, 2.054
100.12, -0.244, 1.334, 1.573
100.152, -4.346, 0.926, 1.618
100.181, -2.807, 0.438, 3.428
100.208, -7.328, -0.477, -11.988
100.238, -1.007, -4.919, -3.552
100.264, 1.667, -0.843, -2.503
100.295, 0.287, 3.992, -0.751
100.333, -1.347, 2.219, -2.723
100.364, -1.551, -5.228, -1.078
100.396, 1.19, -2.51, -0.609
100.429, 4.522, 0.452, 0.611
100.462, 3.976, -1.222, 0.69
100.494, 2.903, -0.59, 1.324
100.528, 2.445, 0.43, 0.691
100.562, 1.146, 1.028, 1.667
100.598, 0.009, 0.756, 2.495
100.632, -2.16, -1.095, 1.977
100.665, -1.635, -1.0, 2.089
100.7, -1.859, 1.275, 2.867
100.732, -6.944, 12.576, -7.178
100.767, 0.878, -5.387, -3.704
100.8, -0.971, -9.247, -5.665
100.835, -0.458, 1.857, -1.626
100.869, -2.321, 1.305, 0.406
100.901, -0.916, 0.525, 0.127
100.934, 4.451, 0.673, 0.757
100.968, 4.249, -0.499, 0.793
101.001, 4.365, -0.037, 0.755
101.032, 3.673, -0.041, 0.972
101.066, 2.631, -0.062, 0.612
101.101, 2.169, -0.116, 1.147
101.133, -0.05, 0.123, 1.921
101.166, -3.788, 1.911, 1.712
101.197, -5.059, 1.691, 1.235
101.228, -5.293, 1.098, -0.346
101.255, -6.172, -2.486, -13.558
101.281, 0.161, -6.32, -4.287
101.315, -0.503, -0.018, -2.645
101.344, -0.199, 5.774, -2.156
101.372, -1.079, 2.659, -1.887
101.4, -3.072, -2.049, -1.199
101.432, 3.254, -0.262, 0.673
101.46, 4.258, 0.59, 0.845
101.489, 4.013, -1.404, 0.388
101.517, 3.561, -0.762, 0.894
101.55, 2.016, 0.808, 1.277
101.579, 1.7, 0.805, 1.419
101.608, 0.03, 0.293, 1.544
101.639, 0.278, -0.346, 1.752
101.67, -0.291, -3.418, 0.966
101.7, -1.795, -2.374, 1.445
101.728, -5.75, 7.177, -4.667
101.757, -8.189, 15.428, -4.236
101.79, -1.519, -6.996, -5.629
101.819, -0.973, -6.563, -4.943
101.852, -1.545, 3.786, -1.2
101.879, -3.373, 5.475, -0.376
101.908, 0.189, 1.352, 0.208
101.938, 3.033, 1.494, 0.251
101.968, 4.437, 0.717, 1.441
101.996, 5.107, -0.515, 1.132
102.024, 4.69, -1.007, 0.657
102.058, 3.448, -0.519, 0.37
102.088, 1.742, -0.396, 0.873
102.117, 0.751, -1.384, 1.503
102.146, -0.374, -0.409, 2.286
102.175, -0.512, 0.743, 1.772
102.206, -2.526, 0.83, 1.565
102.233, -3.856, -0.269, 0.302
102.262, -2.853, -0.62, 4.982
102.292, 0.065, 1.386, 3.219
102.324, -0.308, -6.618, -12.384
102.352, -3.142, -7.804, -9.801
102.381, 0.552, -0.667, -0.957
102.408, 0.91, 7.201, 0.376
102.437, -2.872, 2.821, -0.679
102.462, -0.291, -6.755, -0.946
102.49, 0.402, -3.469, 0.321
102.519, 2.046, -0.295, 0.498
102.549, 3.505, -0.95, 0.525
102.577, 3.575, -2.455, 1.094
102.607, 2.094, -0.904, 0.704
102.635, 1.338, -1.58, 0.545
102.664, 2.26, 0.667, 2.55
102.692, 1.52, -0.233, 3.55
102.722, -1.596, -0.576, 3.964
102.75, -2.269, 2.511, 2.153
102.777, 1.04, -1.076, 0.172
102.806, -2.277, 10.476, -5.947
102.834, -1.244, -1.089, -4.911
102.861, -4.475, -6.832, -4.99
102.889, -7.333, -3.641, -0.757
102.916, -4.239, 0.725, 1.361
102.942, 1.935, 2.379, 1.187
102.969, 5.595, 0.126, 0.694
102.996, 6.311, -0.313, 0.849
103.026, 4.869, 0.444, 1.921
103.054, 4.15, 0.27, 1.862
103.082, 2.944, -0.27, 1.477
103.112, 4.029, -1.375, 1.307
103.145, 2.21, -1.425, 3.027
103.173, -1.225, 0.885, 3.58
103.201, -7.188, 2.065, 0.95
103.232, -6.928, -2.679, -10.749
103.262, 0.81, -4.635, -3.828
103.289, 0.115, 7.931, -1.623
103.317, -4.15, 10.213, -2.63
103.347, -7.682, -6.254, -1.619
103.376, -2.386, -5.11, -2.33
103.405, 1.003, 0.188, 0.133
103.433, 3.715, 0.079, 0.555
103.463, 6.433, -1.463, 0.457
103.49, 5.697, -1.589, 1.439
103.518, 5.03, -0.432, 1.335
103.549, 4.514, -0.199, 0.499
103.582, 2.553, -0.306, 3.695
103.612, -0.655, 1.182, 4.492
103.64, -1.904, 0.295, 3.337
103.673, -4.899, -0.255, 2.631
103.704, -3.689, 1.064, 2.148
103.736, -5.095, 6.555, -4.286
103.768, 0.578, -1.553, -4.834
103.801, 0.415, -3.635, -5.68
103.833, -3.483, -2.672, -3.279
103.861, -4.045, 2.0, -1.134
103.889, -2.052, 2.967, 1.322
103.918, 2.112, 1.198, 0.803
103.949, 5.342, -0.063, 1.575
103.977, 5.729, -0.654, 0.952
104.004, 5.025, -0.092, 1.282
104.034, 4.126, 0.24, 1.346
104.062, 2.112, 0.358, 1.766
104.091, 0.878, 0.017, 1.732
104.122, 0.392, 0.299, 2.06
104.157, -0.509, 1.052, 2.705
104.185, -4.611, 2.507, 2.284
104.214, -4.514, 0.86, 2.206
104.242, -6.299, -0.958, -10.49
104.272, -2.377, -3.11, -8.497
104.301, 0.616, 0.781, -0.902
104.327, -1.438, 5.82, -1.486
104.355, -2.507, 0.961, -1.267
104.382, 0.177, -4.339, -0.709
104.408, 1.518, -2.405, 0.014
104.437, 2.925, -0.451, 0.889
104.47, 5.339, 0.153, 0.82
104.502, 3.778, -0.451, 1.138
104.535, 2.008, 0.506, 1.594
104.565, 1.365, 0.158, 1.652
104.594, 0.214, -0.431, 2.337
104.625, -0.108, -1.218, 2.992
104.657, -1.424, -2.176, 2.503
104.688, -2.433, 0.502, 3.246
104.717, -2.607, 1.546, 1.542
104.746, -3.193, 7.591, -7.7
104.776, 1.585, -1.939, -5.85
104.805, -2.806, -1.739, -5.692
104.834, -5.733, -2.945, -2.371
104.862, -3.303, 2.576, 1.445
104.891, -0.886, 3.21, 0.667
104.917, 2.775, 1.699, 0.516
104.944, 6.103, -0.805, 1.525
104.973, 5.403, -1.18, 0.722
105.0, 5.509, 0.285, 0.856
105.028, 3.274, 0.497, 1.693
105.057, 2.66, 0.108, 1.416
105.082, 1.685, -0.241, 2.071
105.114, 1.262, -0.517, 2.497
105.148, -3.466, 2.37, 1.613
105.182, -4.445, -0.69, 1.333
105.212, -7.752, -3.082, -10.605
105.24, -5.072, -8.733, -4.981
105.266, 1.806, 3.73, -0.635
105.294, -0.121, 6.877, -1.203
105.32, -1.409, 3.216, -1.672
105.349, -4.025, -4.167, -0.694
105.377, -0.439, -4.435, -1.488
105.403, 2.843, -0.287, 0.415
105.429, 5.033, 0.061, 0.721
105.461, 6.052, -0.309, 0.673
105.491, 3.212, -0.263, 1.111
105.518, 2.712, 0.419, 1.433
105.55, 2.671, 0.435, 1.217
105.581, 1.221, -0.1, 1.916
105.614, -0.347, -0.48, 3.034
105.643, -2.476, -1.418, 1.551
105.672, -3.159, -0.325, 2.335
105.702, -1.631, 2.585, -3.593
105.732, -4.919, 8.327, -8.639
105.761, 0.064, 0.313, -6.016
105.789, -5.782, -4.679, -4.782
105.817, -6.042, -1.265, -1.847
105.847, -3.355, 2.246, 1.167
105.874, -0.796, 2.212, 0.833
105.902, 5.721, 0.66, 1.135
105.932, 6.314, -0.566, 1.135
105.96, 5.626, -0.637, 0.705
105.988, 4.986, 0.335, 1.49
106.017, 4.089, 0.068, 1.286
106.047, 3.059, -0.399, 1.515
106.076, 1.893, -0.395, 1.732
106.104, -0.968, 0.891, 1.964
106.135, -3.496, 1.105, 1.534
106.166, -4.053, -0.779, 2.294
106.193, -6.967, -1.598, -5.289
106.222, -1.576, -2.169, -5.853
106.252, 2.627, 1.727, -1.415
106.282, 0.225, 5.134, -2.655
106.309, -2.567, -1.192, -1.21
106.342, -1.913, -3.625, -1.164
106.369, 0.384, -2.687, -0.881
106.398, 2.358, -1.116, -0.211
106.425, 5.562, 0.297, 0.834
106.458, 4.169, -0.05, 1.318
106.49, 2.958, -0.672, 1.679
106.521, 2.943, -0.373, 1.628
106.551, 2.103, -0.069, 1.544
106.579, 1.283, -0.501, 2.235
106.609, -1.189, -2.442, 3.533
106.642, -4.225, -3.686, 3.412
106.668, -3.587, -0.337, 3.123
106.696, -1.638, 1.736, 0.177
106.722, 0.03, 10.242, -6.118
106.75, 3.71, -4.395, -4.174
106.776, -3.059, -6.648, -4.89
106.805, -5.453, -0.117, -2.553
106.837, -2.658, 5.288, -0.065
106.864, -1.362, 2.839, 1.978
106.893, 1.626, 1.252, 0.688
106.923, 6.38, 0.274, 1.47
106.952, 5.258, -0.505, 0.744
106.982, 4.381, -1.168, 1.129
107.009, 4.31, -1.224, 1.04
107.041, 3.385, -0.408, 1.377
107.069, 1.652, -0.439, 0.799
107.099, 1.133, 0.314, 1.381
107.127, 0.257, 1.524, 2.262
107.159, -2.151, 1.51, 1.966
107.184, -4.328, 0.488, 2.157
107.208, -6.875, 0.247, -2.211
107.236, -9.186, -5.259, -9.831
107.262, 2.565, 1.802, -3.757
107.293, 0.407, 4.025, -4.013
107.322, -1.632, -1.133, -1.809
107.35, -3.32, -0.937, -0.882
107.382, 1.381, -2.634, -0.282
107.412, 2.396, -1.478, 0.337
107.442, 3.988, -0.983, 0.856
107.468, 4.069, -0.648, 0.8
107.496, 3.681, -0.709, 1.103
107.525, 2.599, -0.057, 1.476
107.554, 1.78, -0.313, 1.643
107.582, 0.599, -0.335, 1.873
107.612, 0.559, -0.621, 2.333
107.641, 0.662, -1.125, 2.387
107.669, -3.211, -2.301, 1.375
107.698, -2.82, -0.146, 2.302
107.729, -5.246, 7.792, -6.047
107.757, -1.911, 1.234, -5.349
107.784, -1.262, -4.82, -5.007
107.813, -3.595, -5.124, -3.338
107.85, -5.745, 2.791, 0.25
107.879, -3.401, 2.988, 1.238
107.906, 2.73, 0.964, 0.187
107.933, 4.665, 0.339, 1.361
107.962, 5.479, -0.091, 0.309
107.99, 5.774, 0.333, 0.978
108.018, 3.746, -0.509, 1.04
108.05, 3.044, -1.233, 1.01
108.081, 2.928, -1.338, 1.333
108.109, 0.482, 0.422, 2.036
108.138, -0.563, 1.017, 2.513
108.172, -2.919, 3.42, 1.982
108.202, -3.759, -0.92, 1.682
108.235, -6.295, -1.67, -3.606
108.267, 0.681, -0.832, -6.648
108.296, 2.761, 1.248, -0.762
108.324, -1.905, 3.745, -1.845
108.353, -1.274, -2.417, -1.776
108.383, -0.787, -4.675, -0.994
108.41, 1.032, -2.862, -0.044
108.44, 2.446, -0.726, 0.621
108.472, 4.768, -0.572, 0.959
108.502, 3.706, -0.539, 1.605
108.529, 3.213, 0.027, 1.818
108.556, 3.012, 0.101, 1.7
108.584, 0.634, 0.498, 2.418
108.614, 0.313, 0.506, 3.183
108.642, -0.285, -1.923, 2.336
108.675, -3.094, -3.73, 1.471
108.705, -2.924, 0.504, 2.856
108.737, -2.064, 2.515, 0.661
108.764, -3.447, 7.681, -6.442
108.794, 0.518, -1.838, -5.081
108.824, -2.453, -6.105, -4.009
108.859, -4.214, -1.737, -2.837
108.89, -1.77, 3.257, 1.275
108.919, 0.347, 1.526, 0.763
108.949, 5.602, 0.706, 1.782
108.979, 5.307, -0.331, 1.654
109.006, 5.907, -0.277, 1.132
109.035, 5.698, -0.033, 1.324
109.063, 3.266, 0.347, 1.548
109.092, 1.349, 0.514, 1.641
109.121, 0.047, 0.477, 1.699
109.149, -0.49, 0.034, 1.899
109.179, -1.064, 0.482, 2.035
109.206, -4.413, 0.781, 2.063
109.234, -3.385, 0.135, 1.28
109.262, -3.79, -8.391, -7.701
109.289, -0.969, -7.22, -2.743
109.317, 1.464, 2.472, 0.161
109.347, -2.119, 3.175, -2.849
109.378, -3.714, -3.253, -2.722
109.411, 0.438, -2.395, -0.917
109.442, 1.644, -0.104, 0.652
109.47, 6.082, 0.634, 1.131
109.499, 5.691, -0.34, 0.161
109.528, 3.416, -1.82, -0.431
109.559, 4.43, -1.274, 1.141
109.588, 0.538, 1.637, 3.366
109.618, -1.493, 1.725, 3.666
109.647, -2.721, -1.739, 1.409
109.679, -2.972, -2.266, 2.566
109.71, -3.39, 2.363, 2.473
109.738, -5.144, 5.975, -5.605
109.766, -0.246, -2.679, -3.29
109.795, 1.703, -8.515, -4.745
109.825, -3.286, 0.825, -2.934
109.854, -4.872, 2.249, -1.257
109.882, -2.135, 1.605, 0.553
109.912, 1.107, 2.387, 1.032
109.942, 5.184, 0.01, 1.475
109.969, 4.854, -0.307, 1.793
109.996, 5.417, 0.09, 1.164
110.027, 6.096, 0.749, 1.325
110.055, 5.296, 0.501, 1.254
110.084, 2.592, 1.274, 1.546
110.117, 0.957, 0.886, 1.704
110.149, -2.219, 1.339, 1.661
110.179, -4.541, 2.167, 1.545
110.206, -6.707, 0.931, 0.294
110.235, -10.407, -2.813, -10.532
110.266, 3.888, 1.167, -1.829
110.293, 3.075, 5.95, 1.026
110.32, -2.397, 5.487, -2.715
110.35, -2.42, -4.638, -2.287
110.383, 1.735, -0.147, -0.166
110.418, 1.922, 0.001, 0.262
110.452, 3.826, -1.648, 0.807
110.486, 3.842, -1.074, 1.669
110.519, 3.632, -0.206, 1.715
110.553, 3.704, 0.344, 1.5
110.589, 0.84, -0.722, 1.421
110.626, -0.182, -0.655, 2.44
110.658, 0.427, -1.124, 2.414
110.69, -1.938, -1.928, 2.026
110.721, -2.869, -0.104, 3.263
110.753, -7.123, 12.958, -4.815
110.782, 1.487, -4.867, -3.815
110.81, -2.26, -6.217, -5.997
110.839, -5.362, -2.49, -4.723
110.868, -4.022, 0.147, -0.198
110.9, -0.336, 2.352, 0.536
110.929, 2.774, 0.041, 0.376
110.959, 5.569, -0.074, 0.689
110.989, 6.317, -0.186, 1.192
111.02, 6.493, 0.484, 1.067
111.049, 4.608, 0.402, 0.819
111.077, 2.604, -0.107, 1.413
111.105, -0.76, -0.656, 2.395
111.138, -0.976, -0.144, 2.212
111.17, -3.454, 3.073, 0.961
111.196, -4.384, 1.967, 0.544
111.225, -6.53, -0.431, -4.535
111.257, -5.63, -6.629, -8.202
111.285, 2.278, -0.475, -1.908
111.313, -1.069, 2.242, -3.727
111.347, -2.073, -0.94, -2.032
111.378, -3.099, 0.665, -0.65
111.408, -0.027, -2.426, 0.132
111.442, 2.101, -1.171, 0.406
111.473, 4.343, -0.262, 0.921
111.502, 4.619, -0.486, 1.124
111.529, 3.595, -0.434, 1.441
111.557, 2.561, -0.102, 1.788
111.586, 1.245, -0.021, 2.122
111.615, 0.419, -0.35, 2.234
111.644, 1.155, -0.702, 2.583
111.676, -0.34, -1.897, 2.318
111.704, -3.359, 1.288, 2.982
111.732, -2.344, 1.189, 0.593
111.761, -4.411, 0.798, -5.101
111.793, 0.33, 0.548, -5.93
111.821, -0.138, -2.776, -4.487
111.849, -5.58, -2.415, -1.316
111.877, -4.752, 1.234, 0.219
111.905, -0.35, 1.891, 0.626
111.933, 1.621, -0.436, 0.233
111.965, 5.244, -1.303, 0.792
111.994, 5.482, -0.271, 0.778
112.025, 4.492, -0.093, 1.555
112.053, 3.462, -0.715, 1.269
112.081, 2.322, -0.363, 1.156
112.112, 2.293, -0.601, 2.046
112.141, 2.113, -1.388, 2.496
112.168, -2.598, 0.012, 1.66
112.196, -5.421, -0.149, 0.676
112.223, -9.18, -2.636, -9.188
112.251, -4.552, -6.146, -2.363
112.279, 0.229, 3.412, -3.994
112.306, -3.123, 0.159, -1.739
112.335, -2.482, -4.257, -2.183
112.362, -0.298, -4.1, -0.531
112.388, 0.673, -2.666, 0.159
112.415, 2.892, -1.543, 0.36
112.444, 5.172, 0.598, 1.429
112.471, 4.552, -0.005, 1.374
112.498, 3.694, -0.693, 1.42
112.528, 2.012, -1.091, 1.273
112.557, 1.71, -1.223, 1.029
112.585, -0.137, -0.971, 2.519
112.615, -0.238, -1.09, 3.614
112.644, -3.2, -3.124, 2.372
112.671, -3.519, -1.763, 1.838
112.702, -5.432, 13.946, -7.355
112.732, -0.632, 0.334, -4.515
112.76, -0.355, -6.917, -4.277
112.788, -2.755, -2.429, -3.701
112.819, -3.076, 2.62, -1.518
112.854, -1.274, 3.541, 1.442
112.884, 2.502, 0.314, 0.442
112.912, 4.792, 0.705, 1.392
112.94, 4.526, -0.386, 1.372
112.972, 5.204, 0.137, 1.782
113.003, 4.4, -0.591, 1.662
113.033, 3.534, 0.103, 1.625
113.062, 1.323, 1.051, 1.866
113.09, 0.173, 1.066, 2.439
113.119, -0.679, 1.705, 1.727
113.151, -4.131, 1.012, 0.602
113.178, -3.443, 0.006, 2.185
113.204, -8.586, 0.043, -11.716
113.232, -2.206, -4.559, -3.517
113.259, 0.073, -0.933, -4.902
113.291, -1.529, 3.41, -0.694
113.322, -2.687, -0.704, -1.056
113.355, -1.284, -3.482, -1.154
113.386, 2.011, -2.104, 0.151
113.42, 4.607, -0.703, 0.741
113.452, 5.528, -0.122, 0.843
113.482, 3.455, -1.334, 0.58
113.514, 2.538, -0.621, 0.606
113.546, 1.561, 1.405, 2.116
113.578, 0.195, 1.644, 3.31
113.604, -1.968, -0.687, 3.034
113.638, -3.023, -0.994, 2.069
113.666, -2.627, 1.302, 1.884
113.696, -2.551, 2.866, -3.736
113.726, 0.72, -1.062, -6.882
113.759, 2.52, -4.044, -3.788
113.79, -7.01, -2.37, -3.218
113.819, -8.068, 1.101, -1.048
113.85, -2.365, 2.456, 0.912
113.879, 2.413, -0.015, 0.184
113.91, 6.466, -0.081, 0.822
113.942, 6.352, 0.012, 1.127
113.969, 6.515, 0.334, 1.418
113.996, 5.461, 0.072, 1.189
114.023, 2.684, 1.208, 1.571
114.051, 1.42, 1.696, 2.237
114.077, 0.349, 1.41, 2.459
114.106, -2.887, -0.136, 1.553
114.133, -5.632, -0.464, 1.847
114.162, -3.253, 0.122, 3.773
114.192, -8.444, -6.069, -20.734
114.219, 0.779, -6.778, -3.488
114.247, -0.244, 6.214, -1.848
114.275, -3.762, 4.98, -2.226
114.306, -1.581, -2.136, -0.526
114.34, -0.619, -3.274, -0.753
114.373, 2.694, -1.531, 0.926
114.404, 6.262, -0.189, 0.799
114.436, 5.893, -0.624, 0.788
114.467, 3.235, -1.374, 0.944
114.503, 1.526, 0.182, 1.847
114.532, 1.178, 0.235, 2.183
114.562, 0.51, -0.171, 3.112
114.591, -0.767, -0.948, 2.498
114.622, -4.396, 1.37, 2.7
114.651, -3.348, 1.623, 1.754
114.677, -3.421, -0.858, -2.738
114.704, 0.966, 3.94, -8.103
114.735, 1.47, -1.971, -4.46
114.765, -6.336, -5.222, -2.368
114.792, -6.875, -0.48, -0.707
114.82, -2.626, 3.922, 0.761
114.853, 2.931, -0.193, 0.585
114.884, 5.262, 0.878, 1.391
114.913, 4.853, 0.642, 1.313
114.942, 5.225, -0.055, 1.578
114.969, 4.53, -0.406, 1.266
115.002, 2.808, -0.275, 1.361
115.033, 2.523, 0.504, 1.376
115.062, 0.708, 1.614, 1.541
115.09, -0.764, 1.722, 1.864
115.124, -3.931, 1.515, 0.321
115.155, -3.001, 0.64, 0.616
115.186, -4.549, -9.041, -6.43
115.218, 0.13, -1.209, -5.654
115.25, -2.135, 3.481, -1.091
115.277, -2.725, 2.76, -1.432
115.306, -1.364, -3.844, -1.075
115.339, -0.136, -3.02, -0.64
115.368, 4.107, -0.815, 0.428
115.397, 5.893, 0.114, 0.916
115.424, 4.372, -0.173, 0.727
115.453, 2.77, -0.09, 1.122
115.483, 2.067, 0.26, 1.399
115.512, 1.782, 0.173, 1.397
115.54, 0.577, -0.039, 2.362
115.569, -1.526, -1.082, 2.523
115.598, -2.859, -1.643, 1.581
115.627, -3.067, 0.133, 2.873
115.656, -1.967, 0.729, 2.326
115.689, -1.865, 7.285, -10.164
115.721, 2.276, 2.883, -4.698
115.752, -5.557, -0.858, -3.188
115.782, -6.162, -0.027, -0.357
115.811, -2.949, 2.639, -0.142
115.844, 2.64, 0.968, 0.095
115.876, 4.695, 0.665, 0.899
115.903, 5.598, 0.661, 0.627
115.93, 5.398, 0.986, 1.187
115.957, 4.728, 0.871, 0.846
115.985, 2.949, -0.955, 1.006
116.014, 2.295, -1.152, 1.431
116.042, 0.897, -0.463, 1.882
116.073, -0.113, 0.737, 2.342
116.101, -3.037, 1.366, 2.529
116.129, -4.881, -0.407, 2.779
116.159, -5.921, -1.401, -4.882
116.188, -0.479, -2.419, -5.133
116.216, 3.28, 3.369, -0.306
116.246, -3.405, 2.476, -1.679
116.276, -2.546, -2.268, -1.941
116.307, -0.751, -2.34, -0.617
116.34, 0.17, -1.897, -0.315
116.368, 4.086, -0.912, 0.618
116.398, 4.755, -0.521, 0.628
116.429, 3.133, -0.188, 1.491
116.462, 3.272, 0.066, 1.165
116.492, 2.612, -0.288, 1.046
116.52, 1.862, -0.759, 1.012
116.55, 0.182, 0.579, 2.551
116.582, -1.851, -0.456, 2.605
116.616, -3.979, -1.994, 2.022
116.648, -2.439, 0.55, 1.937
116.681, -2.211, 2.599, -6.571
116.712, 1.29, -0.502, -6.255
116.741, 1.027, -4.189, -4.104
116.769, -5.834, -4.886, -1.63
116.798, -5.138, 0.211, 0.133
116.83, -1.196, 2.935, 1.491
116.859, 1.837, 0.419, 0.72
116.886, 5.357, -0.353, 1.762
116.915, 4.894, -0.371, 1.345
116.947, 4.518, 0.753, 2.02
116.976, 3.451, -0.137, 1.648
117.003, 2.094, -0.852, 1.742
117.033, 1.454, -0.34, 2.063
117.062, 0.084, 1.409, 2.718
117.089, -1.709, 2.207, 1.699
117.119, -4.52, 1.709, 0.708
117.153, -4.078, -0.616, -0.042
117.18, -9.389, -3.27, -14.808
117.206, 1.793, 1.158, -2.895
117.235, -0.405, 4.603, -2.234
117.265, -2.345, -1.105, -1.892
117.292, -2.356, -3.149, -0.83
117.319, -1.02, -3.675, -1.176
117.35, 2.89, -1.481, -0.182
117.377, 5.354, -0.764, 0.556
117.403, 4.757, -0.723, 0.961
117.432, 3.459, -0.629, 1.143
117.461, 2.805, -0.28, 1.599
117.489, 2.147, -0.16, 0.888
117.52, 1.142, -0.865, 1.08
117.552, -0.053, 0.02, 3.116
117.58, -0.475, -0.342, 3.177
117.609, -4.311, -0.281, 2.68
117.64, -2.855, 1.491, 1.608
117.67, -2.874, 6.452, -4.769
117.701, 0.205, -4.569, -6.63
117.729, -1.213, -4.608, -4.66
117.757, -4.871, -2.182, -2.339
117.786, -4.649, 3.957, 1.399
117.816, -1.757, 2.55, 1.018
117.845, 4.144, 0.96, 0.287
117.873, 5.145, 0.753, 0.895
117.903, 6.043, 0.18, 0.516
117.932, 6.039, 0.348, 1.154
117.963, 3.43, -0.363, 1.227
117.989, 2.071, -0.249, 1.331
118.02, 0.908, -0.332, 1.721
118.047, 0.29, -0.12, 1.718
118.075, -0.552, 1.058, 1.526
118.106, -4.713, 1.352, 0.555
118.136, -4.01, 0.272, 2.61
118.168, -7.205, -7.467, -11.02
118.195, -0.96, -2.432, -4.019
118.224, -3.826, 3.861, -2.444
118.255, -3.278, -1.553, -2.148
118.282, -0.568, -1.757, 0.056
118.309, 0.41, -1.718, 0.269
118.344, 4.525, -0.841, 0.997
118.372, 6.728, -0.682, 1.194
118.4, 6.65, -0.485, 1.338
118.428, 4.591, -1.016, 1.375
118.459, 3.536, -0.946, 1.531
118.488, 1.006, -0.401, 2.178
118.517, -0.114, 0.353, 3.106
118.545, -1.468, -2.234, 2.51
118.575, -3.276, -2.317, 1.516
118.602, -1.458, 1.126, 0.539
118.63, -1.249, 2.643, -4.778
118.662, 0.573, -0.901, -6.031
118.692, 1.244, -5.352, -4.84
118.721, -5.071, -5.207, -5.742
118.749, -6.709, 1.135, 0.066
118.778, -3.637, 4.45, 1.98
118.807, 1.801, 0.427, 0.609
118.837, 3.979, -0.275, 0.839
118.864, 5.941, -0.042, 0.465
118.894, 6.65, 0.438, 1.058
118.922, 5.024, -0.665, 1.729
118.95, 3.746, -0.594, 1.698
118.982, 1.083, 0.623, 2.24
119.014, 0.173, 0.145, 2.434
119.046, -2.628, -0.019, 1.702
119.074, -5.14, -0.123, 2.007
119.102, -7.147, 0.322, -2.287
119.133, -8.42, -5.546, -14.541
119.166, 1.604, 4.754, -0.313
119.196, -1.925, 6.13, -2.244
119.222, -2.723, -1.722, -1.765
119.252, -2.124, -2.108, -0.207
119.282, 1.885, -2.014, -0.166
119.311, 3.451, -1.627, 0.397
119.341, 4.535, -1.355, 0.808
119.373, 5.21, -0.644, 1.309
119.405, 4.243, -0.79, 1.067
119.437, 3.324, -0.733, 1.078
119.469, 1.705, -0.414, 2.036
119.501, 1.569, 0.236, 3.094
119.536, -3.298, -1.737, 3.18
119.569, -5.226, 1.087, 3.605
119.604, -3.451, 6.419, -7.796
119.638, -0.688, 4.799, -6.737
119.671, -0.132, -5.635, -4.514
119.702, -6.764, -1.949, -1.86
119.732, -5.043, 2.923, 0.693
119.762, -0.629, 1.574, 1.333
119.789, 2.97, 0.065, 0.358
119.817, 4.974, -0.065, 0.379
119.847, 5.978, 0.382, 0.72
119.872, 5.862, 0.244, 1.477
119.902, 3.963, -0.755, 1.928
119.929, 2.801, -0.711, 2.24
119.959, 1.65, -0.149, 2.274
119.987, 1.353, 0.889, 1.677
120.018, 1.176, 0.859, 1.744
120.05, -4.905, -0.844, 1.154
120.077, -5.567, -1.505, 2.199
120.106, -2.038, -4.845, -0.767
120.137, 2.701, 3.963, 0.11
120.164, -2.855, 3.209, -2.718
120.19, -2.338, -2.622, -2.253
120.221, -1.321, -2.455, -1.986
120.254, 0.42, -2.235, -0.279
120.285, 4.756, -1.254, 0.345
120.317, 6.072, -0.669, 0.572
120.351, 3.855, -0.542, 0.881
120.382, 2.597, -0.688, 1.14
120.409, 1.587, -0.708, 1.357
120.442, 0.232, -0.492, 1.784
120.474, -0.328, -0.8, 1.994
120.505, -1.428, -2.632, 2.652
120.533, -3.425, -0.627, 3.607
120.562, -4.091, 2.856, -1.785
120.593, -2.668, 8.247, -8.862
120.624, 2.128, -3.682, -5.325
120.657, -1.9, -2.303, -5.342
120.684, -7.141, -1.284, -1.41
120.712, -3.194, 2.469, 0.963
120.744, 1.32, 1.247, 0.703
120.774, 3.169, 0.615, 0.871
120.802, 4.595, 0.048, 1.024
120.834, 6.463, 1.059, 1.13
120.862, 5.654, 0.144, 1.051
120.893, 4.909, 0.153, 1.441
120.92, 2.876, 0.542, 1.477
120.949, 1.517, 0.16, 1.648
120.978, 0.856, 0.621, 2.457
121.006, -4.868, -1.076, 2.012
121.034, -6.495, -1.495, 1.839
121.063, -6.028, -6.782, -6.636
121.094, -0.19, 0.814, -2.916
121.123, 2.848, 4.5, 1.176
121.153, -3.32, 0.886, -2.484
121.18, -2.936, -2.898, -2.677
121.212, 0.174, -2.221, -0.883
121.24, 0.768, -1.823, -0.333
121.268, 4.605, -1.519, 0.595
121.297, 4.724, -0.796, 0.806
121.328, 3.759, -0.406, 1.39
121.361, 3.919, -0.321, 1.246
121.388, 2.293, -0.348, 1.135
121.416, 0.884, -0.743, 1.616
121.451, -0.039, 0.024, 2.956
121.479, 0.184, -0.617, 2.35
121.508, -4.121, -1.593, 2.456
121.536, -3.246, 1.064, 2.921
121.566, -4.472, 7.249, -6.795
121.594, -0.531, 3.198, -5.314
121.622, -1.107, -4.555, -5.201
121.651, -5.703, -1.336, -2.089
121.68, -6.546, 1.157, -0.255
121.709, -1.245, 2.671, 0.533
121.738, 1.657, 1.005, 0.48
121.767, 5.304, 0.195, 1.154
121.797, 5.105, 0.287, 0.874
121.827, 4.509, 0.706, 1.132
121.855, 3.773, -0.281, 1.42
121.882, 2.281, -1.059, 1.485
121.909, 1.515, -1.053, 1.473
121.941, 1.274, -0.791, 1.993
121.972, -0.669, 2.602, 1.517
122.003, -4.347, -0.84, 1.214
122.039, -4.341, -1.707, 1.429
122.072, -2.781, -4.634, -2.467
122.106, 1.641, 3.083, -1.831
